File: weld_data.csv
Carbon concentration (weight%),Silicon concentration (weight%),Manganese concentration (weight%),Sulphur concentration (weight%),Phosphorus concentration (weight%),Nickel concentration (weight%),Chromium concentration (weight%),Molybdenum concentration (weight%),Vanadium concentration (weight%),Copper concentration (weight%),Cobalt concentration (weight%),Tungsten concentration (weight%),Oxygen concentration (ppm),Titanium concentration (ppm),Nitrogen concentration (ppm),Aluminium concentration (ppm),Boron concentration (ppm),Niobium concentration (ppm),Tin concentration (ppm),Arsenic concentration (ppm),Antimony concentration (ppm),Current (A),Voltage (V),AC or DC,Electrode positive or negative,Heat input (kJ/mm),Interpass temperature (deg C),Type of weld,Post weld heat treatment temperature (deg C),Post weld heat treatment time (hours),Yield strength (MPa),Ultimate tensile strength (MPa),Elongation (%),Reduction of Area (%),Charpy temperature (deg C),Charpy impact toughness (J),Hardness (kg/mm2),50 % FATT,Primary ferrite in microstructure (%),Ferrite with second phase (%),Acicular ferrite (%),Martensite (%),Ferrite with carbide aggregate (%),Weld ID
-1,-1,-1,-1,-1,-1,-1,-1,-1,-1,-1,-1,-1,-1,-1,-1,-1,-1,-1,-1,-1,-1,-1,-1,1,1.0,200.0,0,250.0,14.0,392.0,466.0,31.9,80.6,-1,-1,-1,-1,-1,-1,-1,-1,-1,Evans-Ni/CMn-1990/1991-0Aaw
-1,-1,-1,-1,-1,-1,-1,-1,-1,-1,-1,-1,-1,-1,-1,-1,-1,-1,-1,-1,-1,-1,-1,-1,1,1.0,200.0,0,0.0,0.0,-1,-1,-1,-1,-28,100.0,-1,-1,-1,-1,-1,-1,-1,Evans-Ni/CMn-1990/1991-0Aawch
-1,-1,-1,-1,-1,-1,-1,-1,-1,-1,-1,-1,-1,-1,-1,-1,-1,-1,-1,-1,-1,-1,-1,-1,1,1.0,200.0,0,580.0,2.0,370.0,456.0,35.2,80.6,-38,100.0,-1,-1,-1,-1,-1,-1,-1,Evans-Ni/CMn-1990/1991-0Aht
-1,-1,-1,-1,-1,-1,-1,-1,-1,-1,-1,-1,-1,-1,-1,-1,-1,-1,-1,-1,-1,-1,-1,-1,1,1.0,200.0,0,250.0,14.0,413.0,498.0,31.2,80.6,-1,-1,-1,-1,-1,-1,-1,-1,-1,Evans-Ni/CMn-1990/1991-0Baw
-1,-1,-1,-1,-1,-1,-1,-1,-1,-1,-1,-1,-1,-1,-1,-1,-1,-1,-1,-1,-1,-1,-1,-1,1,1.0,200.0,0,0.0,0.0,-1,-1,-1,-1,-48,100.0,-1,-1,32.0,28.0,40.0,0.0,0.0,Evans-Ni/CMn-1990/1991-0Bawch
-1,-1,-1,-1,-1,-1,-1,-1,-1,-1,-1,-1,-1,-1,-1,-1,-1,-1,-1,-1,-1,-1,-1,-1,1,1.0,200.0,0,580.0,2.0,402.0,490.0,31.0,80.6,-44,100.0,-1,-1,-1,-1,-1,-1,-1,Evans-Ni/CMn-1990/1991-0Bht
-1,-1,-1,-1,-1,-1,-1,-1,-1,-1,-1,-1,-1,-1,-1,-1,-1,-1,-1,-1,-1,-1,-1,-1,1,1.0,200.0,0,250.0,14.0,468.0,551.0,29.4,78.7,-1,-1,-1,-1,-1,-1,-1,-1,-1,Evans-Ni/CMn-1990/1991-0Caw
-1,-1,-1,-1,-1,-1,-1,-1,-1,-1,-1,-1,-1,-1,-1,-1,-1,-1,-1,-1,-1,-1,-1,-1,1,1.0,200.0,0,0.0,0.0,-1,-1,-1,-1,-53,100.0,-1,-1,-1,-1,-1,-1,-1,Evans-Ni/CMn-1990/1991-0Cawch
-1,-1,-1,-1,-1,-1,-1,-1,-1,-1,-1,-1,-1,-1,-1,-1,-1,-1,-1,-1,-1,-1,-1,-1,1,1.0,200.0,0,580.0,2.0,436.0,529.0,31.6,78.8,-58,100.0,-1,-1,-1,-1,-1,-1,-1,Evans-Ni/CMn-1990/1991-0Cht
-1,-1,-1,-1,-1,-1,-1,-1,-1,-1,-1,-1,-1,-1,-1,-1,-1,-1,-1,-1,-1,-1,-1,-1,1,1.0,200.0,0,250.0,14.0,514.0,588.0,28.0,76.8,-1,-1,-1,-1,-1,-1,-1,-1,-1,Evans-Ni/CMn-1990/1991-0Daw
-1,-1,-1,-1,-1,-1,-1,-1,-1,-1,-1,-1,-1,-1,-1,-1,-1,-1,-1,-1,-1,-1,-1,-1,1,1.0,200.0,0,0.0,0.0,-1,-1,-1,-1,-38,100.0,-1,-1,13.0,17.0,60.0,0.0,0.0,Evans-Ni/CMn-1990/1991-0Dawch
-1,-1,-1,-1,-1,-1,-1,-1,-1,-1,-1,-1,-1,-1,-1,-1,-1,-1,-1,-1,-1,-1,-1,-1,1,1.0,200.0,0,580.0,2.0,479.0,576.0,27.4,76.9,-40,100.0,-1,-1,-1,-1,-1,-1,-1,Evans-Ni/CMn-1990/1991-0Dht
-1,-1,-1,-1,-1,-1,-1,-1,-1,-1,-1,-1,-1,-1,-1,-1,-1,-1,-1,-1,-1,-1,-1,-1,1,1.0,200.0,0,250.0,14.0,411.0,484.0,32.6,79.3,-1,-1,-1,-1,-1,-1,-1,-1,-1,Evans-Ni/CMn-1990/1991-0.5Aaw
-1,-1,-1,-1,-1,-1,-1,-1,-1,-1,-1,-1,-1,-1,-1,-1,-1,-1,-1,-1,-1,-1,-1,-1,1,1.0,200.0,0,580.0,2.0,401.0,475.0,34.2,80.6,-1,-1,-1,-1,-1,-1,-1,-1,-1,Evans-Ni/CMn-1990/1991-0.5Aht
-1,-1,-1,-1,-1,-1,-1,-1,-1,-1,-1,-1,-1,-1,-1,-1,-1,-1,-1,-1,-1,-1,-1,-1,1,1.0,200.0,0,250.0,14.0,464.0,522.0,29.6,77.8,-1,-1,-1,-1,-1,-1,-1,-1,-1,Evans-Ni/CMn-1990/1991-0.5Baw
-1,-1,-1,-1,-1,-1,-1,-1,-1,-1,-1,-1,-1,-1,-1,-1,-1,-1,-1,-1,-1,-1,-1,-1,1,1.0,200.0,0,0.0,0.0,-1,-1,-1,-1,-1,-1,-1,-1,19.0,43.0,38.0,0.0,0.0,Evans-Ni/CMn-1990/1991-0.5Bawmic
-1,-1,-1,-1,-1,-1,-1,-1,-1,-1,-1,-1,-1,-1,-1,-1,-1,-1,-1,-1,-1,-1,-1,-1,1,1.0,200.0,0,580.0,2.0,426.0,506.0,31.6,79.7,-1,-1,-1,-1,-1,-1,-1,-1,-1,Evans-Ni/CMn-1990/1991-0.5Bht
-1,-1,-1,-1,-1,-1,-1,-1,-1,-1,-1,-1,-1,-1,-1,-1,-1,-1,-1,-1,-1,-1,-1,-1,1,1.0,200.0,0,250.0,14.0,509.0,568.0,28.6,76.9,-1,-1,-1,-1,-1,-1,-1,-1,-1,Evans-Ni/CMn-1990/1991-0.5Caw
-1,-1,-1,-1,-1,-1,-1,-1,-1,-1,-1,-1,-1,-1,-1,-1,-1,-1,-1,-1,-1,-1,-1,-1,1,1.0,200.0,0,580.0,2.0,450.0,536.0,28.2,78.8,-1,-1,-1,-1,-1,-1,-1,-1,-1,Evans-Ni/CMn-1990/1991-0.5Cht
-1,-1,-1,-1,-1,-1,-1,-1,-1,-1,-1,-1,-1,-1,-1,-1,-1,-1,-1,-1,-1,-1,-1,-1,1,1.0,200.0,0,250.0,14.0,547.0,618.0,26.0,74.9,-1,-1,-1,-1,-1,-1,-1,-1,-1,Evans-Ni/CMn-1990/1991-0.5Daw
-1,-1,-1,-1,-1,-1,-1,-1,-1,-1,-1,-1,-1,-1,-1,-1,-1,-1,-1,-1,-1,-1,-1,-1,1,1.0,200.0,0,0.0,0.0,-1,-1,-1,-1,-1,-1,-1,-1,8.0,24.0,68.0,0.0,0.0,Evans-Ni/CMn-1990/1991-0.5Dawmic
-1,-1,-1,-1,-1,-1,-1,-1,-1,-1,-1,-1,-1,-1,-1,-1,-1,-1,-1,-1,-1,-1,-1,-1,1,1.0,200.0,0,580.0,2.0,526.0,612.0,26.8,72.9,-1,-1,-1,-1,-1,-1,-1,-1,-1,Evans-Ni/CMn-1990/1991-0.5Dht
-1,-1,-1,-1,-1,-1,-1,-1,-1,-1,-1,-1,-1,-1,-1,-1,-1,-1,-1,-1,-1,-1,-1,-1,1,1.0,200.0,0,250.0,14.0,423.0,497.0,30.6,78.8,-1,-1,-1,-1,-1,-1,-1,-1,-1,Evans-Ni/CMn-1990/1991-1Aaw
-1,-1,-1,-1,-1,-1,-1,-1,-1,-1,-1,-1,-1,-1,-1,-1,-1,-1,-1,-1,-1,-1,-1,-1,1,1.0,200.0,0,0.0,0.0,-1,-1,-1,-1,-38,100.0,-1,-1,-1,-1,-1,-1,-1,Evans-Ni/CMn-1990/1991-1Aawch
-1,-1,-1,-1,-1,-1,-1,-1,-1,-1,-1,-1,-1,-1,-1,-1,-1,-1,-1,-1,-1,-1,-1,-1,1,1.0,200.0,0,580.0,2.0,411.0,493.0,33.6,79.7,-40,100.0,-1,-1,-1,-1,-1,-1,-1,Evans-Ni/CMn-1990/1991-1Aht
-1,-1,-1,-1,-1,-1,-1,-1,-1,-1,-1,-1,-1,-1,-1,-1,-1,-1,-1,-1,-1,-1,-1,-1,1,1.0,200.0,0,250.0,14.0,475.0,541.0,29.6,77.9,-1,-1,-1,-1,-1,-1,-1,-1,-1,Evans-Ni/CMn-1990/1991-1Baw
-1,-1,-1,-1,-1,-1,-1,-1,-1,-1,-1,-1,-1,-1,-1,-1,-1,-1,-1,-1,-1,-1,-1,-1,1,1.0,200.0,0,0.0,0.0,-1,-1,-1,-1,-55,100.0,-1,-1,20.0,42.0,38.0,0.0,0.0,Evans-Ni/CMn-1990/1991-1Bawch
-1,-1,-1,-1,-1,-1,-1,-1,-1,-1,-1,-1,-1,-1,-1,-1,-1,-1,-1,-1,-1,-1,-1,-1,1,1.0,200.0,0,580.0,2.0,443.0,521.0,31.8,77.8,-51,100.0,-1,-1,-1,-1,-1,-1,-1,Evans-Ni/CMn-1990/1991-1Bht
-1,-1,-1,-1,-1,-1,-1,-1,-1,-1,-1,-1,-1,-1,-1,-1,-1,-1,-1,-1,-1,-1,-1,-1,1,1.0,200.0,0,250.0,14.0,498.0,569.0,28.4,78.8,-1,-1,-1,-1,-1,-1,-1,-1,-1,Evans-Ni/CMn-1990/1991-1Caw
-1,-1,-1,-1,-1,-1,-1,-1,-1,-1,-1,-1,-1,-1,-1,-1,-1,-1,-1,-1,-1,-1,-1,-1,1,1.0,200.0,0,0.0,0.0,-1,-1,-1,-1,-58,100.0,-1,-1,-1,-1,-1,-1,-1,Evans-Ni/CMn-1990/1991-1Cawch
-1,-1,-1,-1,-1,-1,-1,-1,-1,-1,-1,-1,-1,-1,-1,-1,-1,-1,-1,-1,-1,-1,-1,-1,1,1.0,200.0,0,580.0,2.0,470.0,557.0,30.2,76.0,-20,100.0,-1,-1,-1,-1,-1,-1,-1,Evans-Ni/CMn-1990/1991-1Cht
-1,-1,-1,-1,-1,-1,-1,-1,-1,-1,-1,-1,-1,-1,-1,-1,-1,-1,-1,-1,-1,-1,-1,-1,1,1.0,200.0,0,250.0,14.0,566.0,641.0,26.4,76.0,-1,-1,-1,-1,-1,-1,-1,-1,-1,Evans-Ni/CMn-1990/1991-1Daw
-1,-1,-1,-1,-1,-1,-1,-1,-1,-1,-1,-1,-1,-1,-1,-1,-1,-1,-1,-1,-1,-1,-1,-1,1,1.0,200.0,0,0.0,0.0,-1,-1,-1,-1,-39,100.0,-1,-1,6.0,19.0,75.0,0.0,0.0,Evans-Ni/CMn-1990/1991-1Dawch
-1,-1,-1,-1,-1,-1,-1,-1,-1,-1,-1,-1,-1,-1,-1,-1,-1,-1,-1,-1,-1,-1,-1,-1,1,1.0,200.0,0,580.0,2.0,521.0,612.0,26.0,74.0,1.0,100.0,-1,-1,-1,-1,-1,-1,-1,Evans-Ni/CMn-1990/1991-1Dht
-1,-1,-1,-1,-1,-1,-1,-1,-1,-1,-1,-1,-1,-1,-1,-1,-1,-1,-1,-1,-1,-1,-1,-1,1,1.0,200.0,0,250.0,14.0,466.0,538.0,30.6,77.8,-1,-1,-1,-1,-1,-1,-1,-1,-1,Evans-Ni/CMn-1990/1991-2.25Aaw
-1,-1,-1,-1,-1,-1,-1,-1,-1,-1,-1,-1,-1,-1,-1,-1,-1,-1,-1,-1,-1,-1,-1,-1,1,1.0,200.0,0,0.0,0.0,-1,-1,-1,-1,-50,100.0,-1,-1,-1,-1,-1,-1,-1,Evans-Ni/CMn-1990/1991-2.25Aawch
-1,-1,-1,-1,-1,-1,-1,-1,-1,-1,-1,-1,-1,-1,-1,-1,-1,-1,-1,-1,-1,-1,-1,-1,1,1.0,200.0,0,580.0,2.0,431.0,518.0,32.2,76.9,-41,100.0,-1,-1,-1,-1,-1,-1,-1,Evans-Ni/CMn-1990/1991-2.25Aht
-1,-1,-1,-1,-1,-1,-1,-1,-1,-1,-1,-1,-1,-1,-1,-1,-1,-1,-1,-1,-1,-1,-1,-1,1,1.0,200.0,0,250.0,14.0,489.0,567.0,30.6,76.9,-1,-1,-1,-1,-1,-1,-1,-1,-1,Evans-Ni/CMn-1990/1991-2.25Baw
-1,-1,-1,-1,-1,-1,-1,-1,-1,-1,-1,-1,-1,-1,-1,-1,-1,-1,-1,-1,-1,-1,-1,-1,1,1.0,200.0,0,0.0,0.0,-1,-1,-1,-1,-59,100.0,-1,-1,16.0,38.0,46.0,0.0,0.0,Evans-Ni/CMn-1990/1991-2.25Bawch
-1,-1,-1,-1,-1,-1,-1,-1,-1,-1,-1,-1,-1,-1,-1,-1,-1,-1,-1,-1,-1,-1,-1,-1,1,1.0,200.0,0,580.0,2.0,481.0,561.0,29.1,76.9,-44,100.0,-1,-1,-1,-1,-1,-1,-1,Evans-Ni/CMn-1990/1991-2.25Bht
-1,-1,-1,-1,-1,-1,-1,-1,-1,-1,-1,-1,-1,-1,-1,-1,-1,-1,-1,-1,-1,-1,-1,-1,1,1.0,200.0,0,250.0,14.0,567.0,635.0,23.6,72.7,-1,-1,-1,-1,-1,-1,-1,-1,-1,Evans-Ni/CMn-1990/1991-2.25Caw
-1,-1,-1,-1,-1,-1,-1,-1,-1,-1,-1,-1,-1,-1,-1,-1,-1,-1,-1,-1,-1,-1,-1,-1,1,1.0,200.0,0,0.0,0.0,-1,-1,-1,-1,-38,100.0,-1,-1,-1,-1,-1,-1,-1,Evans-Ni/CMn-1990/1991-2.25Cawch
-1,-1,-1,-1,-1,-1,-1,-1,-1,-1,-1,-1,-1,-1,-1,-1,-1,-1,-1,-1,-1,-1,-1,-1,1,1.0,200.0,0,580.0,2.0,530.0,615.0,26.6,73.0,-20,100.0,-1,-1,-1,-1,-1,-1,-1,Evans-Ni/CMn-1990/1991-2.25Cht
-1,-1,-1,-1,-1,-1,-1,-1,-1,-1,-1,-1,-1,-1,-1,-1,-1,-1,-1,-1,-1,-1,-1,-1,1,1.0,200.0,0,250.0,14.0,621.0,684.0,23.5,73.9,-1,-1,-1,-1,-1,-1,-1,-1,-1,Evans-Ni/CMn-1990/1991-2.25Daw
-1,-1,-1,-1,-1,-1,-1,-1,-1,-1,-1,-1,-1,-1,-1,-1,-1,-1,-1,-1,-1,-1,-1,-1,1,1.0,200.0,0,0.0,0.0,-1,-1,-1,-1,-30,100.0,-1,-1,5.0,14.0,81.0,0.0,0.0,Evans-Ni/CMn-1990/1991-2.25Dawch
-1,-1,-1,-1,-1,-1,-1,-1,-1,-1,-1,-1,-1,-1,-1,-1,-1,-1,-1,-1,-1,-1,-1,-1,1,1.0,200.0,0,580.0,2.0,574.0,665.0,26.4,70.7,-1,-1,-1,-1,-1,-1,-1,-1,-1,Evans-Ni/CMn-1990/1991-2.25Dht
-1,-1,-1,-1,-1,-1,-1,-1,-1,-1,-1,-1,-1,-1,-1,-1,-1,-1,-1,-1,-1,-1,-1,-1,1,1.0,200.0,0,250.0,14.0,479.0,561.0,30.4,76.6,-1,-1,-1,-1,-1,-1,-1,-1,-1,Evans-Ni/CMn-1990/1991-3.5Aaw
-1,-1,-1,-1,-1,-1,-1,-1,-1,-1,-1,-1,-1,-1,-1,-1,-1,-1,-1,-1,-1,-1,-1,-1,1,1.0,200.0,0,0.0,0.0,-1,-1,-1,-1,-26,100.0,-1,-1,-1,-1,-1,-1,-1,Evans-Ni/CMn-1990/1991-3.5Aawch
-1,-1,-1,-1,-1,-1,-1,-1,-1,-1,-1,-1,-1,-1,-1,-1,-1,-1,-1,-1,-1,-1,-1,-1,1,1.0,200.0,0,580.0,2.0,482.0,560.0,31.4,48.8,-63,100.0,-1,-1,-1,-1,-1,-1,-1,Evans-Ni/CMn-1990/1991-3.5Aht
-1,-1,-1,-1,-1,-1,-1,-1,-1,-1,-1,-1,-1,-1,-1,-1,-1,-1,-1,-1,-1,-1,-1,-1,1,1.0,200.0,0,250.0,14.0,525.0,605.0,27.6,76.0,-1,-1,-1,-1,-1,-1,-1,-1,-1,Evans-Ni/CMn-1990/1991-3.5Baw
-1,-1,-1,-1,-1,-1,-1,-1,-1,-1,-1,-1,-1,-1,-1,-1,-1,-1,-1,-1,-1,-1,-1,-1,1,1.0,200.0,0,0.0,0.0,-1,-1,-1,-1,-48,100.0,-1,-1,14.0,35.0,51.0,0.0,0.0,Evans-Ni/CMn-1990/1991-3.5Bawch
-1,-1,-1,-1,-1,-1,-1,-1,-1,-1,-1,-1,-1,-1,-1,-1,-1,-1,-1,-1,-1,-1,-1,-1,1,1.0,200.0,0,580.0,2.0,521.0,599.0,28.4,74.0,-38,100.0,-1,-1,-1,-1,-1,-1,-1,Evans-Ni/CMn-1990/1991-3.5Bht
-1,-1,-1,-1,-1,-1,-1,-1,-1,-1,-1,-1,-1,-1,-1,-1,-1,-1,-1,-1,-1,-1,-1,-1,1,1.0,200.0,0,250.0,14.0,621.0,682.0,25.4,72.9,-1,-1,-1,-1,-1,-1,-1,-1,-1,Evans-Ni/CMn-1990/1991-3.5Caw
-1,-1,-1,-1,-1,-1,-1,-1,-1,-1,-1,-1,-1,-1,-1,-1,-1,-1,-1,-1,-1,-1,-1,-1,1,1.0,200.0,0,0.0,0.0,-1,-1,-1,-1,-18,100.0,-1,-1,-1,-1,-1,-1,-1,Evans-Ni/CMn-1990/1991-3.5Cawch
-1,-1,-1,-1,-1,-1,-1,-1,-1,-1,-1,-1,-1,-1,-1,-1,-1,-1,-1,-1,-1,-1,-1,-1,1,1.0,200.0,0,580.0,2.0,584.0,677.0,26.6,70.8,56.0,100.0,-1,-1,-1,-1,-1,-1,-1,Evans-Ni/CMn-1990/1991-3.5Cht
-1,-1,-1,-1,-1,-1,-1,-1,-1,-1,-1,-1,-1,-1,-1,-1,-1,-1,-1,-1,-1,-1,-1,-1,1,1.0,200.0,0,250.0,14.0,692.0,753.0,22.2,69.7,-1,-1,-1,-1,-1,-1,-1,-1,-1,Evans-Ni/CMn-1990/1991-3.5Daw
-1,-1,-1,-1,-1,-1,-1,-1,-1,-1,-1,-1,-1,-1,-1,-1,-1,-1,-1,-1,-1,-1,-1,-1,1,1.0,200.0,0,0.0,0.0,-1,-1,-1,-1,24.0,100.0,-1,-1,0.0,33.0,37.0,30.0,0.0,Evans-Ni/CMn-1990/1991-3.5Dawch
-1,-1,-1,-1,-1,-1,-1,-1,-1,-1,-1,-1,-1,-1,-1,-1,-1,-1,-1,-1,-1,-1,-1,-1,1,1.0,200.0,0,580.0,2.0,662.0,745.0,24.0,67.5,-1,-1,-1,-1,-1,-1,-1,-1,-1,Evans-Ni/CMn-1990/1991-3.5Dht
-1,-1,-1,-1,-1,-1,-1,-1,-1,-1,-1,-1,-1,-1,-1,-1,-1,-1,-1,-1,-1,-1,-1,-1,1,1.0,150.0,0,0.0,0.0,484.0,560.0,26.0,78.8,-1,-1,-1,-1,-1,-1,-1,-1,-1,Es-Souni&-Cu/CMn-1990--aw***WELDINGPROCEDURE***EvansWeldingJVol59No3(1980)67
-1,-1,-1,-1,-1,-1,-1,-1,-1,-1,-1,-1,-1,-1,-1,-1,-1,-1,-1,-1,-1,-1,-1,-1,1,1.0,150.0,0,580.0,2.0,471.0,563.0,31.2,77.0,-1,-1,-1,-1,-1,-1,-1,-1,-1,Es-Souni&-Cu/CMn-1990--ht
-1,-1,-1,-1,-1,-1,-1,-1,-1,-1,-1,-1,-1,-1,-1,-1,-1,-1,-1,-1,-1,-1,-1,-1,1,1.0,150.0,0,580.0,2.0,482.0,572.0,28.2,77.9,-1,-1,-1,-1,-1,-1,-1,-1,-1,Es-Souni&-Cu/CMn-1990-0.8ht
-1,-1,-1,-1,-1,-1,-1,-1,-1,-1,-1,-1,-1,-1,-1,-1,-1,-1,-1,-1,-1,-1,-1,-1,1,1.0,200.0,0,0.0,0.0,-1,-1,-1,-1,-41,28.0,-1,-1,-1,-1,-1,-1,-1,Evans-AlTi-1994-5/6awch1
-1,-1,-1,-1,-1,-1,-1,-1,-1,-1,-1,-1,-1,-1,-1,-1,-1,-1,-1,-1,-1,-1,-1,-1,1,1.0,200.0,0,0.0,0.0,-1,-1,-1,-1,-1,-1,-1,-1,45.0,46.0,9.0,0.0,0.0,Evans-AlTi-1994-5/60awmic
-1,-1,-1,-1,-1,-1,-1,-1,-1,-1,-1,-1,-1,-1,-1,-1,-1,-1,-1,-1,-1,-1,-1,-1,1,1.0,200.0,0,0.0,0.0,-1,-1,-1,-1,-56,28.0,-1,-1,-1,-1,-1,-1,-1,Evans-AlTi-1994-5/250ch1
-1,-1,-1,-1,-1,-1,-1,-1,-1,-1,-1,-1,-1,-1,-1,-1,-1,-1,-1,-1,-1,-1,-1,-1,1,1.0,200.0,0,0.0,0.0,-1,-1,-1,-1,-1,-1,-1,-1,44.0,38.0,18.0,0.0,0.0,Evans-AlTi-1994-5/420mic
-1,-1,-1,-1,-1,-1,-1,-1,-1,-1,-1,-1,-1,-1,-1,-1,-1,-1,-1,-1,-1,-1,-1,-1,1,1.0,200.0,0,0.0,0.0,-1,-1,-1,-1,-99,28.0,-1,-1,-1,-1,-1,-1,-1,Evans-AlTi-1994-40/5ch1
-1,-1,-1,-1,-1,-1,-1,-1,-1,-1,-1,-1,-1,-1,-1,-1,-1,-1,-1,-1,-1,-1,-1,-1,1,1.0,200.0,0,0.0,0.0,-1,-1,-1,-1,-1,-1,-1,-1,24.0,9.0,67.0,0.0,0.0,Evans-AlTi-1994-40/78mic
-1,-1,-1,-1,-1,-1,-1,-1,-1,-1,-1,-1,-1,-1,-1,-1,-1,-1,-1,-1,-1,-1,-1,-1,1,1.0,200.0,0,0.0,0.0,-1,-1,-1,-1,-88,28.0,-1,-1,-1,-1,-1,-1,-1,Evans-AlTi-1994-40/340ch1
-1,-1,-1,-1,-1,-1,-1,-1,-1,-1,-1,-1,-1,-1,-1,-1,-1,-1,-1,-1,-1,-1,-1,-1,1,1.0,200.0,0,0.0,0.0,-1,-1,-1,-1,-1,-1,-1,-1,21.0,17.0,62.0,0.0,0.0,Evans-AlTi-1994-40/490mic
-1,-1,-1,-1,-1,-1,-1,-1,-1,-1,-1,-1,-1,-1,-1,-1,-1,-1,-1,-1,-1,-1,-1,-1,1,1.0,200.0,0,0.0,0.0,-1,-1,-1,-1,-74,28.0,-1,-1,-1,-1,-1,-1,-1,Evans-AlTi-1994-80/8ht
-1,-1,-1,-1,-1,-1,-1,-1,-1,-1,-1,-1,-1,-1,-1,-1,-1,-1,-1,-1,-1,-1,-1,-1,1,1.0,200.0,0,0.0,0.0,-1,-1,-1,-1,-68,28.0,-1,-1,-1,-1,-1,-1,-1,Evans-AlTi-1994-80/160ht
-1,-1,-1,-1,-1,-1,-1,-1,-1,-1,-1,-1,-1,-1,-1,-1,-1,-1,-1,-1,-1,-1,-1,-1,1,1.0,200.0,0,0.0,0.0,-1,-1,-1,-1,-70,28.0,-1,-1,-1,-1,-1,-1,-1,Evans-AlTi-1994-80/480ht
-1,-1,-1,-1,-1,-1,-1,-1,-1,-1,-1,-1,-1,-1,-1,-1,-1,-1,-1,-1,-1,-1,-1,-1,1,1.0,200.0,0,0.0,0.0,-1,-1,-1,-1,-67,28.0,-1,-1,-1,-1,-1,-1,-1,Evans-AlTi-1994-220/3ch1
-1,-1,-1,-1,-1,-1,-1,-1,-1,-1,-1,-1,-1,-1,-1,-1,-1,-1,-1,-1,-1,-1,-1,-1,1,1.0,200.0,0,0.0,0.0,-1,-1,-1,-1,-1,-1,-1,-1,23.0,24.0,53.0,0.0,0.0,Evans-AlTi-1994-220/47mic
-1,-1,-1,-1,-1,-1,-1,-1,-1,-1,-1,-1,-1,-1,-1,-1,-1,-1,-1,-1,-1,-1,-1,-1,1,1.0,200.0,0,0.0,0.0,-1,-1,-1,-1,-63,28.0,-1,-1,-1,-1,-1,-1,-1,Evans-AlTi-1994-220/320ch1
-1,-1,-1,-1,-1,-1,-1,-1,-1,-1,-1,-1,-1,-1,-1,-1,-1,-1,-1,-1,-1,-1,-1,-1,1,1.0,200.0,0,0.0,0.0,-1,-1,-1,-1,-1,-1,-1,-1,19.0,12.0,69.0,0.0,0.0,Evans-AlTi-1994-220/440ch2
-1,-1,-1,-1,-1,-1,-1,-1,-1,-1,-1,-1,-1,-1,-1,-1,-1,-1,-1,-1,-1,-1,-1,-1,1,1.0,200.0,0,0.0,0.0,-1,-1,-1,-1,-78,28.0,-1,-1,-1,-1,-1,-1,-1,Evans-AlTi-1994-450/1ch1
-1,-1,-1,-1,-1,-1,-1,-1,-1,-1,-1,-1,-1,-1,-1,-1,-1,-1,-1,-1,-1,-1,-1,-1,1,1.0,200.0,0,0.0,0.0,-1,-1,-1,-1,-1,-1,-1,-1,13.0,9.0,78.0,0.0,0.0,Evans-AlTi-1994-450/67mic
-1,-1,-1,-1,-1,-1,-1,-1,-1,-1,-1,-1,-1,-1,-1,-1,-1,-1,-1,-1,-1,-1,-1,-1,1,1.0,200.0,0,0.0,0.0,-1,-1,-1,-1,-65,28.0,-1,-1,-1,-1,-1,-1,-1,Evans-AlTi-1994-450/300ch1
-1,-1,-1,-1,-1,-1,-1,-1,-1,-1,-1,-1,-1,-1,-1,-1,-1,-1,-1,-1,-1,-1,-1,-1,1,1.0,200.0,0,0.0,0.0,-1,-1,-1,-1,-1,-1,-1,-1,15.0,7.0,78.0,0.0,0.0,Evans-AlTi-1994-450/420mic
-1,-1,-1,-1,-1,-1,-1,-1,-1,-1,-1,-1,-1,-1,-1,-1,-1,-1,-1,-1,-1,-1,-1,-1,1,1.0,175.0,0,750.0,8.0,-1,-1,-1,-1,-24,28.0,-1,-1,-1,-1,-1,-1,-1,Evans-B/9Cr1Mo-1994-CM57
-1,-1,-1,-1,-1,-1,-1,-1,-1,-1,-1,-1,-1,-1,-1,-1,-1,-1,-1,-1,-1,-1,-1,-1,1,1.0,175.0,0,750.0,8.0,-1,-1,-1,-1,12.0,100.0,-1,-1,-1,-1,-1,-1,-1,Evans-B/9Cr1Mo-1994-CM58
-1,-1,-1,-1,-1,-1,-1,-1,-1,-1,-1,-1,-1,-1,-1,-1,-1,-1,-1,-1,-1,-1,-1,-1,1,1.0,175.0,0,750.0,8.0,-1,-1,-1,-1,0.0,28.0,-1,-1,-1,-1,-1,-1,-1,Evans-B/9Cr1Mo-1994-CM60
-1,-1,-1,-1,-1,-1,-1,-1,-1,-1,-1,-1,-1,-1,-1,-1,-1,-1,-1,-1,-1,-1,-1,-1,1,1.0,175.0,0,750.0,8.0,-1,-1,-1,-1,31.0,100.0,-1,-1,-1,-1,-1,-1,-1,Evans-B/9Cr1Mo-1994-CM61
-1,-1,-1,-1,-1,-1,-1,-1,-1,-1,-1,-1,-1,-1,-1,-1,-1,-1,-1,-1,-1,-1,-1,-1,1,1.0,175.0,0,750.0,8.0,-1,-1,-1,-1,-19,28.0,-1,-1,-1,-1,-1,-1,-1,Evans-B/9Cr1Mo-1994-CM63
-1,-1,-1,-1,-1,-1,-1,-1,-1,-1,-1,-1,-1,-1,-1,-1,-1,-1,-1,-1,-1,-1,-1,-1,1,1.0,175.0,0,750.0,8.0,-1,-1,-1,-1,-70,100.0,-1,-1,-1,-1,-1,-1,-1,Evans-B/9Cr1Mo-1994-CM64
-1,-1,-1,-1,-1,-1,-1,-1,-1,-1,-1,-1,-1,-1,-1,-1,-1,-1,-1,-1,-1,-1,-1,-1,1,1.0,200.0,0,0.0,0.0,-1,-1,-1,-1,-47,100.0,-1,-1,33.0,27.0,40.0,0.0,0.0,Evans-Cr/CMn-1989-0B-ch
-1,-1,-1,-1,-1,-1,-1,-1,-1,-1,-1,-1,-1,-1,-1,-1,-1,-1,-1,-1,-1,-1,-1,-1,1,1.0,200.0,0,0.0,0.0,-1,-1,-1,-1,-45,100.0,-1,-1,13.0,16.0,71.0,0.0,0.0,Evans-Cr/CMn-1989-0D-ch
-1,-1,-1,-1,-1,-1,-1,-1,-1,-1,-1,-1,-1,-1,-1,-1,-1,-1,-1,-1,-1,-1,-1,-1,1,1.0,200.0,0,250.0,14.0,500.0,575.0,28.0,78.8,-1,-1,-1,-1,-1,-1,-1,-1,-1,Evans-Cr/CMn-1989-0.25C-aw
-1,-1,-1,-1,-1,-1,-1,-1,-1,-1,-1,-1,-1,-1,-1,-1,-1,-1,-1,-1,-1,-1,-1,-1,1,1.0,200.0,0,580.0,2.0,417.0,496.0,29.0,78.8,-17,100.0,-1,-1,-1,-1,-1,-1,-1,Evans-Cr/CMn-1989-0.5A-ht
-1,-1,-1,-1,-1,-1,-1,-1,-1,-1,-1,-1,-1,-1,-1,-1,-1,-1,-1,-1,-1,-1,-1,-1,1,1.0,200.0,0,580.0,2.0,514.0,600.0,25.8,76.0,-35,100.0,-1,-1,-1,-1,-1,-1,-1,Evans-Cr/CMn-1989-0.5C-ht
-1,-1,-1,-1,-1,-1,-1,-1,-1,-1,-1,-1,-1,-1,-1,-1,-1,-1,-1,-1,-1,-1,-1,-1,1,1.0,200.0,0,580.0,2.0,427.0,514.0,29.2,77.9,-12,100.0,-1,-1,-1,-1,-1,-1,-1,Evans-Cr/CMn-1989-1.0A-ht
-1,-1,-1,-1,-1,-1,-1,-1,-1,-1,-1,-1,-1,-1,-1,-1,-1,-1,-1,-1,-1,-1,-1,-1,1,1.0,200.0,0,580.0,2.0,548.0,630.0,26.0,72.0,-17,100.0,-1,-1,-1,-1,-1,-1,-1,Evans-Cr/CMn-1989-1.0C-ht
-1,-1,-1,-1,-1,-1,-1,-1,-1,-1,-1,-1,-1,-1,-1,-1,-1,-1,-1,-1,-1,-1,-1,-1,1,1.0,200.0,0,580.0,2.0,534.0,619.0,22.0,75.0,0.0,100.0,-1,-1,-1,-1,-1,-1,-1,Evans-Cr/CMn-1989-2.3A-ht
-1,-1,-1,-1,-1,-1,-1,-1,-1,-1,-1,-1,-1,-1,-1,-1,-1,-1,-1,-1,-1,-1,-1,-1,1,1.0,200.0,0,580.0,2.0,662.0,731.0,18.6,68.7,28.0,100.0,-1,-1,-1,-1,-1,-1,-1,Evans-Cr/CMn-1989-2.3C-ht
-1,-1,-1,-1,-1,-1,-1,-1,-1,-1,-1,-1,-1,-1,-1,-1,-1,-1,-1,-1,-1,-1,-1,-1,1,1.0,200.0,0,0.0,0.0,-1,-1,-1,-1,-99,28.0,-1,-1,-1,-1,-1,-1,-1,Evans-Al/CMn-1990-<5awch1
-1,-1,-1,-1,-1,-1,-1,-1,-1,-1,-1,-1,-1,-1,-1,-1,-1,-1,-1,-1,-1,-1,-1,-1,1,1.0,200.0,0,250.0,14.0,475.0,536.0,33.4,80.7,-1,-1,-1,-1,-1,-1,-1,-1,-1,Evans-Al/CMn-1990-20aw
-1,-1,-1,-1,-1,-1,-1,-1,-1,-1,-1,-1,-1,-1,-1,-1,-1,-1,-1,-1,-1,-1,-1,-1,1,1.0,200.0,0,0.0,0.0,-1,-1,-1,-1,-88,28.0,-1,-1,-1,-1,-1,-1,-1,Evans-Al/CMn-1990-44awch1
-1,-1,-1,-1,-1,-1,-1,-1,-1,-1,-1,-1,-1,-1,-1,-1,-1,-1,-1,-1,-1,-1,-1,-1,1,1.0,200.0,0,0.0,0.0,-1,-1,-1,-1,-77,28.0,-1,-1,-1,-1,-1,-1,-1,Evans-Al/CMn-1990-78awch1
-1,-1,-1,-1,-1,-1,-1,-1,-1,-1,-1,-1,-1,-1,-1,-1,-1,-1,-1,-1,-1,-1,-1,-1,1,1.0,200.0,0,250.0,14.0,480.0,543.0,29.0,78.9,-1,-1,-1,-1,-1,-1,-1,-1,-1,Evans-Al/CMn-1990-120aw
-1,-1,-1,-1,-1,-1,-1,-1,-1,-1,-1,-1,-1,-1,-1,-1,-1,-1,-1,-1,-1,-1,-1,-1,1,1.0,200.0,0,250.0,14.0,485.0,549.0,31.4,79.8,-1,-1,-1,-1,-1,-1,-1,-1,-1,Evans-Al/CMn-1990-190aw
-1,-1,-1,-1,-1,-1,-1,-1,-1,-1,-1,-1,-1,-1,-1,-1,-1,-1,-1,-1,-1,-1,-1,-1,1,1.0,200.0,0,580.0,2.0,-1,-1,-1,-1,-74,100.0,-1,-1,-1,-1,-1,-1,-1,Evans-Al/CMn-1990-190htch2
-1,-1,-1,-1,-1,-1,-1,-1,-1,-1,-1,-1,-1,-1,-1,-1,-1,-1,-1,-1,-1,-1,-1,-1,1,1.0,200.0,0,580.0,2.0,-1,-1,-1,-1,-90,28.0,-1,-1,-1,-1,-1,-1,-1,Evans-Al/CMn-1990-340htch1
-1,-1,-1,-1,-1,-1,-1,-1,-1,-1,-1,-1,-1,-1,-1,-1,-1,-1,-1,-1,-1,-1,-1,-1,1,1.0,200.0,0,580.0,2.0,417.0,528.0,29.0,78.9,-1,-1,-1,-1,-1,-1,-1,-1,-1,Evans-Al/CMn-1990-490ht
-1,-1,-1,-1,-1,-1,-1,-1,-1,-1,-1,-1,-1,-1,-1,-1,-1,-1,-1,-1,-1,-1,-1,-1,1,1.0,200.0,0,0.0,0.0,-1,-1,-1,-1,-1,-1,-1,-1,19.0,26.0,55.0,0.0,0.0,Evans-Al/CMn-1990-610aw
-1,-1,-1,-1,-1,-1,-1,-1,-1,-1,-1,-1,-1,-1,-1,-1,-1,-1,-1,-1,-1,-1,-1,-1,1,1.0,200.0,0,580.0,2.0,329.0,447.0,36.4,80.5,-54,100.0,-1,-1,-1,-1,-1,-1,-1,Evans-V/Mn-1991-A3ht
-1,-1,-1,-1,-1,-1,-1,-1,-1,-1,-1,-1,-1,-1,-1,-1,-1,-1,-1,-1,-1,-1,-1,-1,1,1.0,200.0,0,580.0,2.0,446.0,526.0,-1,76.0,-30,100.0,-1,-1,-1,-1,-1,-1,-1,Evans-V/Mn-1991-A435ht
-1,-1,-1,-1,-1,-1,-1,-1,-1,-1,-1,-1,-1,-1,-1,-1,-1,-1,-1,-1,-1,-1,-1,-1,1,1.0,200.0,0,580.0,2.0,483.0,576.0,25.2,76.0,-22,100.0,-1,-1,-1,-1,-1,-1,-1,Evans-V/Mn-1991-A815ht
-1,-1,-1,-1,-1,-1,-1,-1,-1,-1,-1,-1,-1,-1,-1,-1,-1,-1,-1,-1,-1,-1,-1,-1,1,1.0,200.0,0,580.0,2.0,434.0,515.0,29.8,78.9,-67,100.0,-1,-1,-1,-1,-1,-1,-1,Evans-V/Mn-1991-B215ht
-1,-1,-1,-1,-1,-1,-1,-1,-1,-1,-1,-1,-1,-1,-1,-1,-1,-1,-1,-1,-1,-1,-1,-1,1,1.0,200.0,0,580.0,2.0,493.0,569.0,27.0,77.0,-44,100.0,-1,-1,-1,-1,-1,-1,-1,Evans-V/Mn-1991-B610ht
-1,-1,-1,-1,-1,-1,-1,-1,-1,-1,-1,-1,-1,-1,-1,-1,-1,-1,-1,-1,-1,-1,-1,-1,1,1.0,200.0,0,580.0,2.0,372.0,497.0,31.4,76.4,-81,100.0,-1,-1,-1,-1,-1,-1,-1,Evans-V/Mn-1991-C4ht
-1,-1,-1,-1,-1,-1,-1,-1,-1,-1,-1,-1,-1,-1,-1,-1,-1,-1,-1,-1,-1,-1,-1,-1,1,1.0,200.0,0,580.0,2.0,526.0,594.0,26.0,76.0,-62,100.0,-1,-1,-1,-1,-1,-1,-1,Evans-V/Mn-1991-C425ht
-1,-1,-1,-1,-1,-1,-1,-1,-1,-1,-1,-1,-1,-1,-1,-1,-1,-1,-1,-1,-1,-1,-1,-1,1,1.0,200.0,0,580.0,2.0,574.0,642.0,22.6,73.0,-36,100.0,-1,-1,-1,-1,-1,-1,-1,Evans-V/Mn-1991-C1005ht
-1,-1,-1,-1,-1,-1,-1,-1,-1,-1,-1,-1,-1,-1,-1,-1,-1,-1,-1,-1,-1,-1,-1,-1,1,1.0,200.0,0,580.0,2.0,523.0,602.0,25.6,75.0,-59,100.0,-1,-1,-1,-1,-1,-1,-1,Evans-V/Mn-1991-D235ht
-1,-1,-1,-1,-1,-1,-1,-1,-1,-1,-1,-1,-1,-1,-1,-1,-1,-1,-1,-1,-1,-1,-1,-1,1,1.0,200.0,0,580.0,2.0,521.0,597.0,24.4,74.0,-44,100.0,-1,-1,-1,-1,-1,-1,-1,Evans-V/Mn-1991-D605ht
-1,-1,-1,-1,-1,-1,-1,-1,-1,-1,-1,-1,-1,-1,-1,-1,-1,-1,-1,-1,-1,-1,-1,-1,1,1.0,200.0,0,580.0,2.0,329.0,447.0,36.4,80.5,-55,100.0,-1,-1,-1,-1,-1,-1,-1,Evans-Nb/Mn-1991-A<5ht
-1,-1,-1,-1,-1,-1,-1,-1,-1,-1,-1,-1,-1,-1,-1,-1,-1,-1,-1,-1,-1,-1,-1,-1,1,1.0,200.0,0,580.0,2.0,451.0,539.0,24.4,78.0,-27,100.0,-1,-1,-1,-1,-1,-1,-1,Evans-Nb/Mn-1991-A220ht
-1,-1,-1,-1,-1,-1,-1,-1,-1,-1,-1,-1,-1,-1,-1,-1,-1,-1,-1,-1,-1,-1,-1,-1,1,1.0,200.0,0,580.0,2.0,544.0,621.0,22.6,71.9,18.0,100.0,-1,-1,-1,-1,-1,-1,-1,Evans-Nb/Mn-1991-A880ht
-1,-1,-1,-1,-1,-1,-1,-1,-1,-1,-1,-1,-1,-1,-1,-1,-1,-1,-1,-1,-1,-1,-1,-1,1,1.0,200.0,0,580.0,2.0,447.0,540.0,30.4,77.0,-55,100.0,-1,-1,-1,-1,-1,-1,-1,Evans-Nb/Mn-1991-B120ht
-1,-1,-1,-1,-1,-1,-1,-1,-1,-1,-1,-1,-1,-1,-1,-1,-1,-1,-1,-1,-1,-1,-1,-1,1,1.0,200.0,0,580.0,2.0,540.0,616.0,22.4,75.0,-20,100.0,-1,-1,-1,-1,-1,-1,-1,Evans-Nb/Mn-1991-B465ht
-1,-1,-1,-1,-1,-1,-1,-1,-1,-1,-1,-1,-1,-1,-1,-1,-1,-1,-1,-1,-1,-1,-1,-1,1,1.0,200.0,0,580.0,2.0,372.0,497.0,31.4,76.4,-81,100.0,-1,-1,-1,-1,-1,-1,-1,Evans-Nb/Mn-1991-C<6ht
-1,-1,-1,-1,-1,-1,-1,-1,-1,-1,-1,-1,-1,-1,-1,-1,-1,-1,-1,-1,-1,-1,-1,-1,1,1.0,200.0,0,580.0,2.0,539.0,607.0,25.0,76.0,-41,100.0,-1,-1,-1,-1,-1,-1,-1,Evans-Nb/Mn-1991-C235ht
-1,-1,-1,-1,-1,-1,-1,-1,-1,-1,-1,-1,-1,-1,-1,-1,-1,-1,-1,-1,-1,-1,-1,-1,1,1.0,200.0,0,580.0,2.0,614.0,686.0,19.0,70.8,7.0,100.0,-1,-1,-1,-1,-1,-1,-1,Evans-Nb/Mn-1991-C940ht
-1,-1,-1,-1,-1,-1,-1,-1,-1,-1,-1,-1,-1,-1,-1,-1,-1,-1,-1,-1,-1,-1,-1,-1,1,1.0,200.0,0,580.0,2.0,524.0,605.0,24.4,74.0,-61,100.0,-1,-1,-1,-1,-1,-1,-1,Evans-Nb/Mn-1991-D125ht
-1,-1,-1,-1,-1,-1,-1,-1,-1,-1,-1,-1,-1,-1,-1,-1,-1,-1,-1,-1,-1,-1,-1,-1,1,1.0,200.0,0,580.0,2.0,577.0,661.0,21.6,71.9,-15,100.0,-1,-1,-1,-1,-1,-1,-1,Evans-Nb/Mn-1991-D450ht
-1,-1,-1,-1,-1,-1,-1,-1,-1,-1,-1,-1,-1,-1,-1,-1,-1,-1,-1,-1,-1,-1,-1,-1,0.0,2.0,200.0,0,250.0,14.0,443.0,508.0,30.4,82.4,-1,-1,-1,-1,-1,-1,-1,-1,-1,Evans-FelowH-1991-UF.25a
-1,-1,-1,-1,-1,-1,-1,-1,-1,-1,-1,-1,-1,-1,-1,-1,-1,-1,-1,-1,-1,-1,-1,-1,1,1.0,200.0,0,250.0,14.0,442.0,524.0,31.6,80.6,-1,-1,-1,-1,-1,-1,-1,-1,-1,Evans-FelowH-1991-E7016(1)
-1,-1,-1,-1,-1,-1,-1,-1,-1,-1,-1,-1,-1,-1,-1,-1,-1,-1,-1,-1,-1,-1,-1,-1,1,1.0,200.0,0,580.0,2.0,-1,-1,-1,-1,-60,15.0,-1,-1,-1,-1,-1,-1,-1,Evans-StressRelief-1991-0.045Ach-60
-1,-1,-1,-1,-1,-1,-1,-1,-1,-1,-1,-1,-1,-1,-1,-1,-1,-1,-1,-1,-1,-1,-1,-1,1,1.0,200.0,0,580.0,2.0,-1,-1,-1,-1,-70,21.0,-1,-1,-1,-1,-1,-1,-1,Evans-StressRelief-1991-0.045Bch-70
-1,-1,-1,-1,-1,-1,-1,-1,-1,-1,-1,-1,-1,-1,-1,-1,-1,-1,-1,-1,-1,-1,-1,-1,1,1.0,200.0,0,580.0,2.0,414.0,502.0,31.0,80.6,-1,-1,-1,-1,-1,-1,-1,-1,-1,Evans-StressRelief-1991-0.045C
-1,-1,-1,-1,-1,-1,-1,-1,-1,-1,-1,-1,-1,-1,-1,-1,-1,-1,-1,-1,-1,-1,-1,-1,1,1.0,200.0,0,580.0,2.0,-1,-1,-1,-1,20.0,222.0,-1,-1,-1,-1,-1,-1,-1,Evans-StressRelief-1991-0.045Cch20
-1,-1,-1,-1,-1,-1,-1,-1,-1,-1,-1,-1,-1,-1,-1,-1,-1,-1,-1,-1,-1,-1,-1,-1,1,1.0,200.0,0,580.0,2.0,-1,-1,-1,-1,-20,203.0,-1,-1,-1,-1,-1,-1,-1,Evans-StressRelief-1991-0.045Dch-20
-1,-1,-1,-1,-1,-1,-1,-1,-1,-1,-1,-1,-1,-1,-1,-1,-1,-1,-1,-1,-1,-1,-1,-1,1,1.0,200.0,0,580.0,2.0,-1,-1,-1,-1,-20,178.0,-1,-1,-1,-1,-1,-1,-1,Evans-StressRelief-1991-0.065Ach-20
-1,-1,-1,-1,-1,-1,-1,-1,-1,-1,-1,-1,-1,-1,-1,-1,-1,-1,-1,-1,-1,-1,-1,-1,1,1.0,200.0,0,580.0,2.0,-1,-1,-1,-1,-40,155.0,-1,-1,-1,-1,-1,-1,-1,Evans-StressRelief-1991-0.065Bch-40
-1,-1,-1,-1,-1,-1,-1,-1,-1,-1,-1,-1,-1,-1,-1,-1,-1,-1,-1,-1,-1,-1,-1,-1,1,1.0,200.0,0,580.0,2.0,-1,-1,-1,-1,-50,119.0,-1,-1,-1,-1,-1,-1,-1,Evans-StressRelief-1991-0.065Cch-50
-1,-1,-1,-1,-1,-1,-1,-1,-1,-1,-1,-1,-1,-1,-1,-1,-1,-1,-1,-1,-1,-1,-1,-1,1,1.0,200.0,0,580.0,2.0,-1,-1,-1,-1,-60,55.0,-1,-1,-1,-1,-1,-1,-1,Evans-StressRelief-1991-0.065Dch-60
-1,-1,-1,-1,-1,-1,-1,-1,-1,-1,-1,-1,-1,-1,-1,-1,-1,-1,-1,-1,-1,-1,-1,-1,1,1.0,200.0,0,580.0,2.0,-1,-1,-1,-1,-70,23.0,-1,-1,-1,-1,-1,-1,-1,Evans-StressRelief-1991-0.095Ach-70
-1,-1,-1,-1,-1,-1,-1,-1,-1,-1,-1,-1,-1,-1,-1,-1,-1,-1,-1,-1,-1,-1,-1,-1,1,1.0,200.0,0,580.0,2.0,435.0,546.0,34.0,77.0,-1,-1,-1,-1,-1,-1,-1,-1,-1,Evans-StressRelief-1991-0.095B
-1,-1,-1,-1,-1,-1,-1,-1,-1,-1,-1,-1,-1,-1,-1,-1,-1,-1,-1,-1,-1,-1,-1,-1,1,1.0,200.0,0,580.0,2.0,-1,-1,-1,-1,20.0,220.0,-1,-1,-1,-1,-1,-1,-1,Evans-StressRelief-1991-0.095Bch20
-1,-1,-1,-1,-1,-1,-1,-1,-1,-1,-1,-1,-1,-1,-1,-1,-1,-1,-1,-1,-1,-1,-1,-1,1,1.0,200.0,0,580.0,2.0,-1,-1,-1,-1,-20,188.0,-1,-1,-1,-1,-1,-1,-1,Evans-StressRelief-1991-0.095Cch-20
-1,-1,-1,-1,-1,-1,-1,-1,-1,-1,-1,-1,-1,-1,-1,-1,-1,-1,-1,-1,-1,-1,-1,-1,1,1.0,200.0,0,580.0,2.0,-1,-1,-1,-1,-40,114.0,-1,-1,-1,-1,-1,-1,-1,Evans-StressRelief-1991-0.095Dch-40
-1,-1,-1,-1,-1,-1,-1,-1,-1,-1,-1,-1,-1,-1,-1,-1,-1,-1,-1,-1,-1,-1,-1,-1,1,1.0,200.0,0,580.0,2.0,-1,-1,-1,-1,-40,64.0,-1,-1,-1,-1,-1,-1,-1,Evans-StressRelief-1991-0.145Ach-40
-1,-1,-1,-1,-1,-1,-1,-1,-1,-1,-1,-1,-1,-1,-1,-1,-1,-1,-1,-1,-1,-1,-1,-1,1,1.0,200.0,0,580.0,2.0,-1,-1,-1,-1,-50,63.0,-1,-1,-1,-1,-1,-1,-1,Evans-StressRelief-1991-0.145Bch-50
-1,-1,-1,-1,-1,-1,-1,-1,-1,-1,-1,-1,-1,-1,-1,-1,-1,-1,-1,-1,-1,-1,-1,-1,1,1.0,200.0,0,580.0,2.0,-1,-1,-1,-1,-60,57.0,-1,-1,-1,-1,-1,-1,-1,Evans-StressRelief-1991-0.145Cch-60
-1,-1,-1,-1,-1,-1,-1,-1,-1,-1,-1,-1,-1,-1,-1,-1,-1,-1,-1,-1,-1,-1,-1,-1,1,1.0,200.0,0,580.0,2.0,-1,-1,-1,-1,-70,27.0,-1,-1,-1,-1,-1,-1,-1,Evans-StressRelief-1991-0.145Dch-70
-1,-1,-1,-1,-1,-1,-1,-1,-1,-1,-1,-1,-1,-1,-1,-1,-1,-1,-1,-1,-1,-1,-1,-1,1,1.0,200.0,0,250.0,14.0,404.0,494.0,32.4,76.0,-1,-1,-1,-1,-1,-1,-1,-1,-1,Evans-Ti/Mn-1992-A8aw
-1,-1,-1,-1,-1,-1,-1,-1,-1,-1,-1,-1,-1,-1,-1,-1,-1,-1,-1,-1,-1,-1,-1,-1,1,1.0,200.0,0,250.0,14.0,396.0,492.0,30.2,78.0,-1,-1,-1,-1,-1,-1,-1,-1,-1,Evans-Ti/Mn-1992-A96aw
-1,-1,-1,-1,-1,-1,-1,-1,-1,-1,-1,-1,-1,-1,-1,-1,-1,-1,-1,-1,-1,-1,-1,-1,1,1.0,200.0,0,250.0,14.0,440.0,523.0,31.4,77.0,-1,-1,-1,-1,-1,-1,-1,-1,-1,Evans-Ti/Mn-1992-A225aw
-1,-1,-1,-1,-1,-1,-1,-1,-1,-1,-1,-1,-1,-1,-1,-1,-1,-1,-1,-1,-1,-1,-1,-1,1,1.0,200.0,0,250.0,14.0,443.0,522.0,31.1,77.0,-1,-1,-1,-1,-1,-1,-1,-1,-1,Evans-Ti/Mn-1992-B41aw
-1,-1,-1,-1,-1,-1,-1,-1,-1,-1,-1,-1,-1,-1,-1,-1,-1,-1,-1,-1,-1,-1,-1,-1,1,1.0,200.0,0,250.0,14.0,434.0,517.0,30.8,78.9,-1,-1,-1,-1,-1,-1,-1,-1,-1,Evans-Ti/Mn-1992-B140aw
-1,-1,-1,-1,-1,-1,-1,-1,-1,-1,-1,-1,-1,-1,-1,-1,-1,-1,-1,-1,-1,-1,-1,-1,1,1.0,200.0,0,250.0,14.0,420.0,523.0,26.4,77.0,-1,-1,-1,-1,-1,-1,-1,-1,-1,Evans-Ti/Mn-1992-C5aw
-1,-1,-1,-1,-1,-1,-1,-1,-1,-1,-1,-1,-1,-1,-1,-1,-1,-1,-1,-1,-1,-1,-1,-1,1,1.0,200.0,0,250.0,14.0,450.0,522.0,29.4,78.9,-1,-1,-1,-1,-1,-1,-1,-1,-1,Evans-Ti/Mn-1992-C75aw
-1,-1,-1,-1,-1,-1,-1,-1,-1,-1,-1,-1,-1,-1,-1,-1,-1,-1,-1,-1,-1,-1,-1,-1,1,1.0,200.0,0,250.0,14.0,485.0,559.0,28.0,80.7,-1,-1,-1,-1,-1,-1,-1,-1,-1,Evans-Ti/Mn-1992-C215aw
-1,-1,-1,-1,-1,-1,-1,-1,-1,-1,-1,-1,-1,-1,-1,-1,-1,-1,-1,-1,-1,-1,-1,-1,1,1.0,200.0,0,250.0,14.0,500.0,571.0,28.8,77.0,-1,-1,-1,-1,-1,-1,-1,-1,-1,Evans-Ti/Mn-1992-D36aw
-1,-1,-1,-1,-1,-1,-1,-1,-1,-1,-1,-1,-1,-1,-1,-1,-1,-1,-1,-1,-1,-1,-1,-1,1,1.0,200.0,0,250.0,14.0,510.0,590.0,27.4,79.7,-1,-1,-1,-1,-1,-1,-1,-1,-1,Evans-Ti/Mn-1992-D170aw
-1,-1,-1,-1,-1,-1,-1,-1,-1,-1,-1,-1,-1,-1,-1,-1,-1,-1,-1,-1,-1,-1,-1,-1,1,1.0,200.0,0,0.0,0.0,445.0,528.0,28.2,78.0,-1,-1,-1,-1,-1,-1,-1,-1,-1,KocakPEv-TiN-1994-O
-1,-1,-1,-1,-1,-1,-1,-1,-1,-1,-1,-1,-1,-1,-1,-1,-1,-1,-1,-1,-1,-1,-1,-1,1,1.0,200.0,0,0.0,0.0,530.0,597.0,25.0,81.6,-1,-1,-1,-1,-1,-1,-1,-1,-1,KocakPREv-TiN-1994-Xb
-1,-1,-1,-1,-1,-1,-1,-1,-1,-1,-1,-1,-1,-1,-1,-1,-1,-1,-1,-1,-1,-1,-1,-1,1,1.0,200.0,0,0.0,0.0,584.0,639.0,23.0,75.0,-1,-1,-1,-1,-1,-1,-1,-1,-1,KocakPREv-TiN-1994-X1a
-1,-1,-1,-1,-1,-1,-1,-1,-1,-1,-1,-1,-1,-1,-1,-1,-1,-1,-1,-1,-1,-1,-1,-1,1,1.0,200.0,0,0.0,0.0,546.0,621.0,23.6,76.0,-1,-1,-1,-1,-1,-1,-1,-1,-1,KocakPREv-TiN-1994-W2d
-1,-1,-1,-1,-1,-1,-1,-1,-1,-1,-1,-1,-1,-1,-1,-1,-1,-1,-1,-1,-1,-1,-1,-1,1,1.0,150.0,0,500.0,2.0,402.0,490.0,31.0,80.6,-44,100.0,-1,-1,-1,-1,-1,-1,-1,Evans-Mn-1977-Bht
-1,-1,-1,-1,-1,-1,-1,-1,-1,-1,-1,-1,-1,-1,-1,-1,-1,-1,-1,-1,-1,-1,-1,-1,1,2.1,107.0,0,620.0,1.0,673.0,680.0,23.8,-1,-42,50.0,-1,-1,-1,-1,-1,-1,-1,SurianEtAl-C-1991-0.05htCh
-1,-1,-1,-1,-1,-1,-1,-1,-1,-1,-1,-1,-1,-1,-1,-1,-1,-1,-1,-1,-1,-1,-1,-1,1,2.1,107.0,0,620.0,1.0,795.0,895.0,18.0,-1,-3,50.0,-1,-1,-1,-1,-1,-1,-1,SurianEtAl-C-1991-0.12htCh
-1,-1,-1,-1,-1,-1,-1,-1,-1,-1,-1,-1,-1,-1,-1,-1,-1,-1,-1,-1,-1,-1,-1,-1,0,1.0,200.0,0,0.0,0.0,566.0,674.0,21.0,62.0,-1,-1,-1,-1,-1,-1,-1,-1,-1,Alekseev&-CMnNi-1991-CH6
-1,-1,-1,-1,-1,-1,-1,-1,-1,-1,-1,-1,-1,-1,-1,-1,-1,-1,-1,-1,-1,-1,-1,-1,1,1.0,175.0,0,750.0,8.0,525.0,696.0,19.8,64.4,-1,-1,-1,-1,-1,-1,-1,-1,-1,Evans-AlEl9Cr1Mo-1994-1Co
-1,-1,-1,-1,-1,-1,-1,-1,-1,-1,-1,-1,-1,-1,-1,-1,-1,-1,-1,-1,-1,-1,-1,-1,1,1.0,175.0,0,750.0,8.0,531.0,738.0,17.3,58.1,-1,-1,-1,-1,-1,-1,-1,-1,-1,Evans-AlEl9Cr1Mo-1994-1W1Ni
-1,-1,-1,-1,-1,-1,-1,-1,-1,-1,-1,-1,-1,-1,-1,-1,-1,-1,-1,-1,-1,-1,-1,-1,1,1.8,100.0,0,620.0,1.0,485.0,584.0,-1,-1,-1,-1,-1,-1,-1,-1,-1,-1,-1,RaiterGonzal-Mo-1989-2ht
-1,-1,-1,-1,-1,-1,-1,-1,-1,-1,-1,-1,-1,-1,-1,-1,-1,-1,-1,-1,-1,-1,-1,-1,1,1.8,100.0,0,620.0,1.0,591.0,674.0,-1,-1,-1,-1,-1,-1,-1,-1,-1,-1,-1,RaiterGonzal-Mo-1989-5ht
-1,-1,-1,-1,-1,-1,-1,-1,-1,-1,-1,-1,-1,-1,-1,-1,-1,-1,-1,-1,-1,-1,-1,-1,1,1.8,100.0,0,620.0,1.0,632.0,709.0,-1,-1,-1,-1,-1,-1,-1,-1,-1,-1,-1,RaiterGonzal-Mo-1989-8ht
-1,-1,-1,-1,-1,-1,-1,-1,-1,-1,-1,-1,-1,-1,-1,-1,-1,-1,-1,-1,-1,-1,-1,-1,1,1.0,250.0,0,0.0,0.0,-1,-1,-1,-1,-20,48.0,-1,-1,-1,-1,-1,-1,-1,SvenGret-1990-1Ch-2
-1,-1,-1,-1,-1,-1,-1,-1,-1,-1,-1,-1,-1,-1,-1,-1,-1,-1,-1,-1,-1,-1,-1,-1,1,1.0,250.0,0,0.0,0.0,-1,-1,-1,-1,-20,38.0,-1,-1,-1,-1,-1,-1,-1,SvenGret-1990-2Ch-2
-1,-1,-1,-1,-1,-1,-1,-1,-1,-1,-1,-1,-1,-1,-1,-1,-1,-1,-1,-1,-1,-1,-1,-1,1,1.0,250.0,0,0.0,0.0,-1,-1,-1,-1,-20,143.0,-1,-1,-1,-1,-1,-1,-1,SvenGret-1990-3Ch-2
-1,-1,-1,-1,-1,-1,-1,-1,-1,-1,-1,-1,-1,-1,-1,-1,-1,-1,-1,-1,-1,-1,-1,-1,1,1.0,250.0,0,0.0,0.0,-1,-1,-1,-1,-20,143.0,-1,-1,-1,-1,-1,-1,-1,SvenGret-1990-4Ch-2
-1,-1,-1,-1,-1,-1,-1,-1,-1,-1,-1,-1,-1,-1,-1,-1,-1,-1,-1,-1,-1,-1,-1,-1,1,1.0,250.0,0,0.0,0.0,-1,-1,-1,-1,-20,157.0,-1,-1,-1,-1,-1,-1,-1,SvenGret-1990-5Ch-2
-1,-1,-1,-1,-1,-1,-1,-1,-1,-1,-1,-1,-1,-1,-1,-1,-1,-1,-1,-1,-1,-1,-1,-1,1,1.0,250.0,0,0.0,0.0,-1,-1,-1,-1,-20,124.0,-1,-1,-1,-1,-1,-1,-1,SvenGret-1990-6Ch-2
-1,-1,-1,-1,-1,-1,-1,-1,-1,-1,-1,-1,-1,-1,-1,-1,-1,-1,-1,-1,-1,-1,-1,-1,1,1.0,250.0,0,0.0,0.0,-1,-1,-1,-1,-20,143.0,-1,-1,-1,-1,-1,-1,-1,SvenGret-1990-7Ch-2
-1,-1,-1,-1,-1,-1,-1,-1,-1,-1,-1,-1,-1,-1,-1,-1,-1,-1,-1,-1,-1,-1,-1,-1,1,1.0,250.0,0,0.0,0.0,-1,-1,-1,-1,-20,150.0,-1,-1,-1,-1,-1,-1,-1,SvenGret-1990-8Ch-2
-1,-1,-1,-1,-1,-1,-1,-1,-1,-1,-1,-1,-1,-1,-1,-1,-1,-1,-1,-1,-1,-1,-1,-1,1,1.0,250.0,0,0.0,0.0,-1,-1,-1,-1,-20,160.0,-1,-1,-1,-1,-1,-1,-1,SvenGret-1990-9Ch-2
-1,-1,-1,-1,-1,-1,-1,-1,-1,-1,-1,-1,-1,-1,-1,-1,-1,-1,-1,-1,-1,-1,-1,-1,1,1.0,250.0,0,0.0,0.0,-1,-1,-1,-1,-20,162.0,-1,-1,-1,-1,-1,-1,-1,SvenGret-1990-10Ch-2
-1,-1,-1,-1,-1,-1,-1,-1,-1,-1,-1,-1,-1,-1,-1,-1,-1,-1,-1,-1,-1,-1,-1,-1,1,1.0,250.0,0,0.0,0.0,-1,-1,-1,-1,-20,157.0,-1,-1,-1,-1,-1,-1,-1,SvenGret-1990-11Ch-2
-1,-1,-1,-1,-1,-1,-1,-1,-1,-1,-1,-1,-1,-1,-1,-1,-1,-1,-1,-1,-1,-1,-1,-1,1,1.0,250.0,0,0.0,0.0,-1,-1,-1,-1,-20,126.0,-1,-1,-1,-1,-1,-1,-1,SvenGret-1990-12Ch-2
-1,-1,-1,-1,-1,-1,-1,-1,-1,-1,-1,-1,-1,-1,-1,-1,-1,-1,-1,-1,-1,-1,-1,-1,1,1.0,250.0,0,0.0,0.0,-1,-1,-1,-1,-20,140.0,-1,-1,-1,-1,-1,-1,-1,SvenGret-1990-13Ch-2
-1,-1,-1,-1,-1,-1,-1,-1,-1,-1,-1,-1,-1,-1,-1,-1,-1,-1,-1,-1,-1,-1,-1,-1,1,1.0,250.0,0,0.0,0.0,-1,-1,-1,-1,-20,145.0,-1,-1,-1,-1,-1,-1,-1,SvenGret-1990-14Ch-2
-1,-1,-1,-1,-1,-1,-1,-1,-1,-1,-1,-1,-1,-1,-1,-1,-1,-1,-1,-1,-1,-1,-1,-1,1,1.0,250.0,0,0.0,0.0,-1,-1,-1,-1,-20,136.0,-1,-1,-1,-1,-1,-1,-1,SvenGret-1990-15Ch-2
-1,-1,-1,-1,-1,-1,-1,-1,-1,-1,-1,-1,-1,-1,-1,-1,-1,-1,-1,-1,-1,-1,-1,-1,1,1.0,250.0,0,0.0,0.0,-1,-1,-1,-1,-20,107.0,-1,-1,-1,-1,-1,-1,-1,SvenGret-1990-16Ch-2
-1,-1,-1,-1,-1,-1,-1,-1,-1,-1,-1,-1,-1,-1,-1,-1,-1,-1,-1,-1,-1,-1,-1,-1,1,2.8,200.0,2,200.0,14.0,-1,557.0,-1,-1,-1,-1,-1,-1,-1,-1,-1,-1,-1,PakSven-1990-4
-1,-1,-1,-1,-1,-1,-1,-1,-1,-1,-1,-1,-1,-1,-1,-1,-1,-1,-1,-1,-1,-1,-1,-1,1,2.8,200.0,2,200.0,14.0,-1,533.0,-1,-1,-1,-1,-1,-1,-1,-1,-1,-1,-1,PakSven-1990-10
-1,-1,-1,-1,-1,-1,-1,-1,-1,-1,-1,-1,-1,-1,-1,-1,-1,-1,-1,-1,-1,-1,-1,-1,1,2.8,200.0,2,200.0,14.0,-1,538.0,-1,-1,-1,-1,-1,-1,-1,-1,-1,-1,-1,PakSven-1990-16
-1,-1,-1,-1,-1,-1,-1,-1,-1,-1,-1,-1,-1,-1,-1,-1,-1,-1,-1,-1,-1,-1,-1,-1,1,1.0,200.0,0,0.0,0.0,-1,-1,-1,-1,-63,100.0,-1,-1,-1,-1,-1,-1,-1,JorgeEtAl-1993-Caw
-1,-1,-1,-1,-1,-1,-1,-1,-1,-1,-1,-1,-1,-1,-1,-1,-1,-1,-1,-1,-1,-1,-1,-1,1,1.0,200.0,0,0.0,0.0,-1,-1,-1,-1,-25,100.0,-1,-1,-1,-1,-1,-1,-1,JorgeEtAl-1993-Faw
-1,-1,-1,-1,-1,-1,-1,-1,-1,-1,-1,-1,-1,-1,-1,-1,-1,-1,-1,-1,-1,-1,-1,-1,1,2.0,200.0,1,0.0,0.0,649.0,-1,-1,-1,-1,-1,257.0,6.0,-1,-1,-1,-1,-1,Hunt&-Di-1994-1
-1,-1,-1,-1,-1,-1,-1,-1,-1,-1,-1,-1,-1,-1,-1,-1,-1,-1,-1,-1,-1,-1,-1,-1,1,4.6,200.0,1,0.0,0.0,552.0,-1,-1,-1,-1,-1,213.0,-106,-1,-1,-1,-1,-1,Hunt&-Di-1994-7
-1,-1,-1,-1,-1,-1,-1,-1,-1,-1,-1,-1,-1,-1,-1,-1,-1,-1,-1,-1,-1,-1,-1,-1,1,2.0,200.0,1,0.0,0.0,592.0,-1,-1,-1,-1,-1,252.0,-73,-1,-1,-1,-1,-1,Hunt&-Di-1994-13
-1,-1,-1,-1,-1,-1,-1,-1,-1,-1,-1,-1,-1,-1,-1,-1,-1,-1,-1,-1,-1,-1,-1,-1,1,4.8,200.0,1,0.0,0.0,523.0,714.0,30.0,53.0,-5,35.0,-1,-1,-1,-1,-1,-1,-1,Kluket-CuMnB-1994-3
-1,-1,-1,-1,-1,-1,-1,-1,-1,-1,-1,-1,-1,-1,-1,-1,-1,-1,-1,-1,-1,-1,-1,-1,1,4.8,200.0,1,0.0,0.0,542.0,829.0,26.0,51.0,33.0,35.0,-1,-1,-1,-1,-1,-1,-1,Kluket-CuMnB-1994-9
-1,-1,-1,-1,-1,-1,-1,-1,-1,-1,-1,-1,-1,-1,-1,-1,-1,-1,-1,-1,-1,-1,-1,-1,1,2.2,250.0,0,0.0,0.0,475.8,564.1,28.0,70.5,-1,-1,220.0,-1,-1,-1,-1,-1,-1,Cunh-1982-8018Gaw2
-1,-1,-1,-1,-1,-1,-1,-1,-1,-1,-1,-1,-1,-1,-1,-1,-1,-1,-1,-1,-1,-1,-1,-1,1,2.8,250.0,0,0.0,0.0,479.7,583.7,24.0,71.5,-1,-1,189.0,-1,-1,-1,-1,-1,-1,Cunh-1982-8018Gaw5
-1,-1,-1,-1,-1,-1,-1,-1,-1,-1,-1,-1,-1,-1,-1,-1,-1,-1,-1,-1,-1,-1,-1,-1,1,1.8,140.0,0,0.0,0.0,453.8,536.3,22.6,72.0,-1,-1,184.0,-1,-1,-1,-1,-1,-1,Cunh-1982-8018Gaw8
-1,-1,-1,-1,-1,-1,-1,-1,-1,-1,-1,-1,-1,-1,-1,-1,-1,-1,-1,-1,-1,-1,-1,-1,1,1.9,140.0,0,0.0,0.0,561.1,643.5,21.0,64.2,-1,-1,216.0,-1,-1,-1,-1,-1,-1,Cunh-1982-7018ht11
-1,-1,-1,-1,-1,-1,-1,-1,-1,-1,-1,-1,-1,-1,-1,-1,-1,-1,-1,-1,-1,-1,-1,-1,1,2.4,200.0,1,0.0,0.0,630.8,725.9,24.5,68.5,-1,-1,265.0,-1,-1,-1,-1,-1,-1,Cunh-1982-14aw
-1,-1,-1,-1,-1,-1,-1,-1,-1,-1,-1,-1,-1,-1,-1,-1,-1,-1,-1,-1,-1,-1,-1,-1,1,1.6,200.0,1,0.0,0.0,536.6,627.8,30.0,68.0,-1,-1,202.0,-1,-1,-1,-1,-1,-1,Cunh-1982-17aw
-1,-1,-1,-1,-1,-1,-1,-1,-1,-1,-1,-1,-1,-1,-1,-1,-1,-1,-1,-1,-1,-1,-1,-1,1,4.6,200.0,3,0.0,0.0,388.0,497.0,30.0,58.0,-1,-1,158.0,-1,-1,-1,-1,-1,-1,Pat-1981-RE2L/BX200
-1,-1,-1,-1,-1,-1,-1,-1,-1,-1,-1,-1,-1,-1,-1,-1,-1,-1,-1,-1,-1,-1,-1,-1,1,4.6,200.0,3,0.0,0.0,-1,-1,-1,-1,-60,40.0,-1,-1,-1,-1,-1,-1,-1,Pat-1981-S2/BX200
-1,-1,-1,-1,-1,-1,-1,-1,-1,-1,-1,-1,-1,-1,-1,-1,-1,-1,-1,-1,-1,-1,-1,-1,1,4.6,200.0,3,0.0,0.0,-1,-1,-1,-1,-40,38.0,-1,-1,-1,-1,-1,-1,-1,Pat-1981-RE3L/BX200
-1,-1,-1,-1,-1,-1,-1,-1,-1,-1,-1,-1,-1,-1,-1,-1,-1,-1,-1,-1,-1,-1,-1,-1,1,4.6,200.0,3,0.0,0.0,-1,-1,-1,-1,-20,95.0,-1,-1,-1,-1,-1,-1,-1,Pat-1981-WB3/BX200
-1,-1,-1,-1,-1,-1,-1,-1,-1,-1,-1,-1,-1,-1,-1,-1,-1,-1,-1,-1,-1,-1,-1,-1,1,4.6,200.0,3,0.0,0.0,-1,-1,-1,-1,0.0,102.0,-1,-1,-1,-1,-1,-1,-1,Pat-1981-S4/BX200
-1,-1,-1,-1,-1,-1,-1,-1,-1,-1,-1,-1,-1,-1,-1,-1,-1,-1,-1,-1,-1,-1,-1,-1,1,4.6,200.0,3,0.0,0.0,554.0,554.0,30.0,67.0,-1,-1,157.0,-1,-1,-1,-1,-1,-1,Pat-1981-S2Mo/BX200
-1,-1,-1,-1,-1,-1,-1,-1,-1,-1,-1,-1,-1,-1,-1,-1,-1,-1,-1,-1,-1,-1,-1,-1,1,4.6,200.0,3,0.0,0.0,-1,-1,-1,-1,-60,10.0,-1,-1,-1,-1,-1,-1,-1,Pat-1981-S4Mo/BX200
-1,-1,-1,-1,-1,-1,-1,-1,-1,-1,-1,-1,-1,-1,-1,-1,-1,-1,-1,-1,-1,-1,-1,-1,1,4.4,200.0,3,0.0,0.0,-1,-1,-1,-1,-40,139.0,-1,-1,-1,-1,-1,-1,-1,Pat-1981-RE2L/BX400
-1,-1,-1,-1,-1,-1,-1,-1,-1,-1,-1,-1,-1,-1,-1,-1,-1,-1,-1,-1,-1,-1,-1,-1,1,4.4,200.0,3,0.0,0.0,-1,-1,-1,-1,-20,134.0,-1,-1,-1,-1,-1,-1,-1,Pat-1981-S2/BX400
-1,-1,-1,-1,-1,-1,-1,-1,-1,-1,-1,-1,-1,-1,-1,-1,-1,-1,-1,-1,-1,-1,-1,-1,1,4.4,200.0,3,0.0,0.0,-1,-1,-1,-1,0.0,180.0,-1,-1,-1,-1,-1,-1,-1,Pat-1981-RE3L/BX400
-1,-1,-1,-1,-1,-1,-1,-1,-1,-1,-1,-1,-1,-1,-1,-1,-1,-1,-1,-1,-1,-1,-1,-1,1,4.4,200.0,3,0.0,0.0,359.0,503.0,28.0,72.0,-1,-1,154.0,-1,-1,-1,-1,-1,-1,Pat-1981-S4/BX400
-1,-1,-1,-1,-1,-1,-1,-1,-1,-1,-1,-1,-1,-1,-1,-1,-1,-1,-1,-1,-1,-1,-1,-1,1,4.4,200.0,3,0.0,0.0,-1,-1,-1,-1,-60,30.0,-1,-1,-1,-1,-1,-1,-1,Pat-1981-S6/BX400
-1,-1,-1,-1,-1,-1,-1,-1,-1,-1,-1,-1,-1,-1,-1,-1,-1,-1,-1,-1,-1,-1,-1,-1,1,4.4,200.0,3,0.0,0.0,-1,-1,-1,-1,-40,72.0,-1,-1,-1,-1,-1,-1,-1,Pat-1981-S2Mo/BX400
-1,-1,-1,-1,-1,-1,-1,-1,-1,-1,-1,-1,-1,-1,-1,-1,-1,-1,-1,-1,-1,-1,-1,-1,1,4.4,200.0,3,0.0,0.0,-1,-1,-1,-1,0.0,113.0,-1,-1,-1,-1,-1,-1,-1,Pat-1981-S4Mo/BX400
-1,-1,-1,-1,-1,-1,-1,-1,-1,-1,-1,-1,-1,-1,-1,-1,-1,-1,-1,-1,-1,-1,-1,-1,1,3.6,100.0,1,0.0,0.0,503.0,625.0,17.0,72.0,-5,70.0,-1,-10,-1,-1,-1,-1,-1,Wats-1981-FWO
-1,-1,-1,-1,-1,-1,-1,-1,-1,-1,-1,-1,-1,-1,-1,-1,-1,-1,-1,-1,-1,-1,-1,-1,1,3.6,100.0,1,0.0,0.0,441.0,557.0,16.0,69.0,34.0,70.0,-1,25.0,-1,-1,-1,-1,-1,Wats-1981-FW5
-1,-1,-1,-1,-1,-1,-1,-1,-1,-1,-1,-1,-1,-1,-1,-1,-1,-1,-1,-1,-1,-1,-1,-1,1,0.6,200.0,0,0.0,0.0,-1,-1,-1,-1,-47,100.0,-1,-1,-1,-1,-1,-1,-1,EvHtIp1979-0.6CC
-1,-1,-1,-1,-1,-1,-1,-1,-1,-1,-1,-1,-1,-1,-1,-1,-1,-1,-1,-1,-1,-1,-1,-1,1,1.0,200.0,0,0.0,0.0,-1,-1,-1,-1,-46,100.0,-1,-1,-1,-1,-1,-1,-1,EvHtIp1979-1.0BC
-1,-1,-1,-1,-1,-1,-1,-1,-1,-1,-1,-1,-1,-1,-1,-1,-1,-1,-1,-1,-1,-1,-1,-1,1,2.2,200.0,0,0.0,0.0,-1,-1,-1,-1,-39,100.0,-1,-1,-1,-1,-1,-1,-1,EvHtIp1979-2.2AC
-1,-1,-1,-1,-1,-1,-1,-1,-1,-1,-1,-1,-1,-1,-1,-1,-1,-1,-1,-1,-1,-1,-1,-1,1,2.2,200.0,0,0.0,0.0,-1,-1,-1,-1,-37,100.0,-1,-1,-1,-1,-1,-1,-1,EvHtIp1979-2.2DC
-1,-1,-1,-1,-1,-1,-1,-1,-1,-1,-1,-1,-1,-1,-1,-1,-1,-1,-1,-1,-1,-1,-1,-1,1,4.3,200.0,0,0.0,0.0,-1,-1,-1,-1,-27,100.0,-1,-1,-1,-1,-1,-1,-1,EvHtIp1979-4.3CC
-1,-1,-1,-1,-1,-1,-1,-1,-1,-1,-1,-1,-1,-1,-1,-1,-1,-1,-1,-1,-1,-1,-1,-1,1,7.9,300.0,1,0.0,0.0,471.0,575.0,-1,66.0,-1,-1,-1,-1,-1,-1,-1,-1,-1,Stil-TiB-1978-1.5Mn/OP122
-1,-1,-1,-1,-1,-1,-1,-1,-1,-1,-1,-1,-1,-1,-1,-1,-1,-1,-1,-1,-1,-1,-1,-1,1,7.9,300.0,1,0.0,0.0,496.0,604.0,-1,65.0,-1,-1,-1,-1,-1,-1,-1,-1,-1,Stil-TiB-1978-1978-TiBMo/BX200
-1,-1,-1,-1,-1,-1,-1,-1,-1,-1,-1,-1,-1,-1,-1,-1,-1,-1,-1,-1,-1,-1,-1,-1,1,7.9,300.0,1,0.0,0.0,479.0,587.0,-1,68.0,-1,-1,-1,-1,-1,-1,-1,-1,-1,Stil-TiB-1978-TiBMo/OP122
-1,-1,-1,-1,-1,-1,-1,-1,-1,-1,-1,-1,-1,-1,-1,-1,-1,-1,-1,-1,-1,-1,-1,-1,1,1.0,150.0,0,0.0,0.0,454.0,519.0,29.0,78.8,-35,100.0,-1,-1,-1,-1,-1,-1,-1,Evans-intpss-1978-B150
-1,-1,-1,-1,-1,-1,-1,-1,-1,-1,-1,-1,-1,-1,-1,-1,-1,-1,-1,-1,-1,-1,-1,-1,1,1.0,240.0,0,0.0,0.0,501.0,566.0,31.4,77.8,-48,100.0,-1,-1,-1,-1,-1,-1,-1,Evans-intpss-1978-D240
-1,-1,-1,-1,-1,-1,-1,-1,-1,-1,-1,-1,-1,-1,-1,-1,-1,-1,-1,-1,-1,-1,-1,-1,1,3.3,300.0,1,-1,-1,605.0,-1,16.0,48.0,-1,-1,-1,-1,-1,-1,-1,-1,-1,Gar&K-1975-25mm-1ht
-1,-1,-1,-1,-1,-1,-1,-1,-1,-1,-1,-1,-1,-1,-1,-1,-1,-1,-1,-1,-1,-1,-1,-1,1,3.3,300.0,1,-1,-1,784.0,-1,17.0,64.0,-1,-1,-1,-1,-1,-1,-1,-1,-1,Gar&K-1975-25mm-4ht
-1,-1,-1,-1,-1,-1,-1,-1,-1,-1,-1,-1,-1,-1,-1,-1,-1,-1,-1,-1,-1,-1,-1,-1,1,7.6,300.0,1,-1,-1,720.0,-1,15.0,55.0,-1,-1,-1,-1,-1,-1,-1,-1,-1,Gar&K-1975-25mm-7ht
-1,-1,-1,-1,-1,-1,-1,-1,-1,-1,-1,-1,-1,-1,-1,-1,-1,-1,-1,-1,-1,-1,-1,-1,1,3.3,300.0,1,-1,-1,580.0,-1,30.0,66.0,-1,-1,-1,-1,-1,-1,-1,-1,-1,Gar&K-1975-25mm-10ht
-1,-1,-1,-1,-1,-1,-1,-1,-1,-1,-1,-1,-1,-1,-1,-1,-1,-1,-1,-1,-1,-1,-1,-1,1,3.3,300.0,1,-1,-1,431.0,-1,27.0,62.0,-1,-1,-1,-1,-1,-1,-1,-1,-1,Gar&K-1975-25mm-13ht
-1,-1,-1,-1,-1,-1,-1,-1,-1,-1,-1,-1,-1,-1,-1,-1,-1,-1,-1,-1,-1,-1,-1,-1,1,3.3,300.0,1,600.0,0.75,701.0,766.0,22.0,52.0,-1,-1,-1,-1,-1,-1,-1,-1,-1,Gar&K-1975-12mm-16ht
-1,-1,-1,-1,-1,-1,-1,-1,-1,-1,-1,-1,-1,-1,-1,-1,-1,-1,-1,-1,-1,-1,-1,-1,1,3.3,300.0,1,600.0,0.75,599.0,701.0,26.0,64.0,-1,-1,-1,-1,-1,-1,-1,-1,-1,Gar&K-1975-12mm-19ht
-1,-1,-1,-1,-1,-1,-1,-1,-1,-1,-1,-1,-1,-1,-1,-1,-1,-1,-1,-1,-1,-1,-1,-1,1,3.3,300.0,1,600.0,0.75,648.0,735.0,25.0,65.0,-1,-1,-1,-1,-1,-1,-1,-1,-1,Gar&K-1975-12mm-22ht
-1,-1,-1,-1,-1,-1,-1,-1,-1,-1,-1,-1,-1,-1,-1,-1,-1,-1,-1,-1,-1,-1,-1,-1,1,3.3,300.0,1,600.0,0.75,662.0,740.0,24.0,60.0,-1,-1,-1,-1,-1,-1,-1,-1,-1,Gar&K-1975-12mm-25ht
-1,-1,-1,-1,-1,-1,-1,-1,-1,-1,-1,-1,-1,-1,-1,-1,-1,-1,-1,-1,-1,-1,-1,-1,1,3.3,300.0,1,600.0,0.75,669.0,735.0,-1,-1,-1,-1,-1,-1,-1,-1,-1,-1,-1,Gar&K-1975-12mmE-31aw
-1,-1,-1,-1,-1,-1,-1,-1,-1,-1,-1,-1,-1,-1,-1,-1,-1,-1,-1,-1,-1,-1,-1,-1,1,1.9,300.0,1,0.0,0.0,457.0,556.0,25.0,60.0,-1,-1,-1,-1,-1,-1,-1,-1,-1,Ga&K-1975II-6aw
-1,-1,-1,-1,-1,-1,-1,-1,-1,-1,-1,-1,-1,-1,-1,-1,-1,-1,-1,-1,-1,-1,-1,-1,1,1.0,175.0,0,0.0,0.0,-1,-1,-1,-1,-1,-1,405.0,-1,11.0,-1,-1,-1,-1,PantK-1990-w2
-1,-1,-1,-1,-1,-1,-1,-1,-1,-1,-1,-1,-1,-1,-1,-1,-1,-1,-1,-1,-1,-1,-1,-1,1,1.3,175.0,0,740.0,8.0,-1,-1,-1,-1,-1,-1,225.0,-1,-1,-1,-1,-1,-1,PantK-1990-w4.4
-1,-1,-1,-1,-1,-1,-1,-1,-1,-1,-1,-1,-1,-1,-1,-1,-1,-1,-1,-1,-1,-1,-1,-1,1,1.3,175.0,0,740.0,2.0,-1,-1,-1,-1,-1,-1,212.0,-1,-1,-1,-1,-1,-1,PantK-1990-w5.3
-1,-1,-1,-1,-1,-1,-1,-1,-1,-1,-1,-1,-1,-1,-1,-1,-1,-1,-1,-1,-1,-1,-1,-1,1,1.3,175.0,0,720.0,8.0,-1,-1,-1,-1,-1,-1,226.0,-1,-1,-1,-1,-1,-1,PantK-1990-w6.2
-1,-1,-1,-1,-1,-1,-1,-1,-1,-1,-1,-1,-1,-1,-1,-1,-1,-1,-1,-1,-1,-1,-1,-1,1,1.0,175.0,0,720.0,2.0,-1,-1,-1,-1,-1,-1,277.0,-1,-1,-1,-1,-1,-1,PantK-1990-w7.1
-1,-1,-1,-1,-1,-1,-1,-1,-1,-1,-1,-1,-1,-1,-1,-1,-1,-1,-1,-1,-1,-1,-1,-1,1,1.2,175.0,0,0.0,0.0,-1,-1,-1,-1,-1,-1,362.0,-1,0.0,-1,-1,-1,-1,PantK-1990-w8.0
-1,-1,-1,-1,-1,-1,-1,-1,-1,-1,-1,-1,-1,-1,-1,-1,-1,-1,-1,-1,-1,-1,-1,-1,1,1.2,175.0,0,760.0,8.0,-1,-1,-1,-1,-1,-1,246.0,-1,-1,-1,-1,-1,-1,PantK-1990-w8.6
-1,-1,-1,-1,-1,-1,-1,-1,-1,-1,-1,-1,-1,-1,-1,-1,-1,-1,-1,-1,-1,-1,-1,-1,1,1.2,200.0,0,750.0,2.0,-1,-1,-1,-1,-20,8.0,-1,-1,-1,-1,-1,-1,-1,PantK-1990-bw2.1
-1,-1,-1,-1,-1,-1,-1,-1,-1,-1,-1,-1,-1,-1,-1,-1,-1,-1,-1,-1,-1,-1,-1,-1,1,1.1,200.0,0,760.0,8.0,-1,-1,-1,-1,40.0,83.0,-1,-1,-1,-1,-1,-1,-1,PantK-1990-bw3.3
-1,-1,-1,-1,-1,-1,-1,-1,-1,-1,-1,-1,-1,-1,-1,-1,-1,-1,-1,-1,-1,-1,-1,-1,1,1.4,177.0,9,746.0,4.0,625.0,734.0,22.0,63.0,-1,-1,-1,-1,-1,-1,-1,-1,-1,EPRI-TR-101394s-E9SA6
-1,-1,-1,-1,-1,-1,-1,-1,-1,-1,-1,-1,-1,-1,-1,-1,-1,-1,-1,-1,-1,-1,-1,-1,1,1.4,177.0,8,746.0,1.0,728.0,817.0,21.0,73.0,-1,-1,-1,-1,-1,-1,-1,-1,-1,EPRI-TR-101394s-E9GT4
-1,-1,-1,-1,-1,-1,-1,-1,-1,-1,-1,-1,-1,-1,-1,-1,-1,-1,-1,-1,-1,-1,-1,-1,1,3.6,200.0,6,690.0,10.0,-1,-1,-1,-1,27.0,144.0,-1,-1,-1,-1,-1,-1,-1,Chandel&-1985W4ch1
-1,-1,-1,-1,-1,-1,-1,-1,-1,-1,-1,-1,-1,-1,-1,-1,-1,-1,-1,-1,-1,-1,-1,-1,0.0,2.9,200.0,1,690.0,8.0,-1,-1,-1,-1,-40,10.0,-1,-1,-1,-1,-1,-1,-1,Icici&-1992-CM1ch1
-1,-1,-1,-1,-1,-1,-1,-1,-1,-1,-1,-1,-1,-1,-1,-1,-1,-1,-1,-1,-1,-1,-1,-1,0.0,2.9,200.0,1,690.0,24.0,-1,685.0,-1,-1,-1,-1,-1,-1,-1,-1,-1,-1,-1,Icici&-1992-CM1
-1,-1,-1,-1,-1,-1,-1,-1,-1,-1,-1,-1,-1,-1,-1,-1,-1,-1,-1,-1,-1,-1,-1,-1,0.0,2.9,200.0,1,690.0,8.0,-1,-1,-1,-1,-20,172.0,-1,-1,-1,-1,-1,-1,-1,Icici&-1992-CM2ch5
-1,-1,-1,-1,-1,-1,-1,-1,-1,-1,-1,-1,-1,-1,-1,-1,-1,-1,-1,-1,-1,-1,-1,-1,0.0,2.9,200.0,1,690.0,8.0,-1,-1,-1,-1,-20,37.0,-1,-1,-1,-1,-1,-1,-1,Icici&-1992-CM3ch4
-1,-1,-1,-1,-1,-1,-1,-1,-1,-1,-1,-1,-1,-1,-1,-1,-1,-1,-1,-1,-1,-1,-1,-1,0.0,2.9,200.0,1,690.0,24.0,-1,-1,22.4,69.1,-1,-1,-1,-1,-1,-1,-1,-1,-1,Icici&-1992-N2b
-1,-1,-1,-1,-1,-1,-1,-1,-1,-1,-1,-1,-1,-1,-1,-1,-1,-1,-1,-1,-1,-1,-1,-1,1,2.4,100.0,1,550.0,1.83,473.0,605.0,28.8,73.0,-1,-1,-1,-1,-1,-1,-1,-1,-1,Blond&-1984-A530b
-1,-1,-1,-1,-1,-1,-1,-1,-1,-1,-1,-1,-1,-1,-1,-1,-1,-1,-1,-1,-1,-1,-1,-1,1,2.4,175.0,1,690.0,2.33,524.0,664.0,23.6,66.5,-1,-1,-1,-1,-1,-1,-1,-1,-1,Blond&-1984-10CD9.10b
-1,-1,-1,-1,-1,-1,-1,-1,-1,-1,-1,-1,-1,-1,-1,-1,-1,-1,-1,-1,-1,-1,-1,-1,1,2.4,125.0,1,605.0,1.92,663.0,730.0,22.5,66.5,-1,-1,-1,-1,-1,-1,-1,-1,-1,Blond&-1984-14MNDV5b
-1,-1,-1,-1,-1,-1,-1,-1,-1,-1,-1,-1,-1,-1,-1,-1,-1,-1,-1,-1,-1,-1,-1,-1,0.0,1.8,225.0,3,690.0,24.0,596.0,703.0,20.0,62.0,-1,-1,-1,-1,-1,-1,-1,-1,-1,Natsume-1990-hh
-1,-1,-1,-1,-1,-1,-1,-1,-1,-1,-1,-1,-1,-1,-1,-1,-1,-1,-1,-1,-1,-1,-1,-1,1,2.04,150.0,2,690.0,10.0,-1,-1,-1,-1,-60,9.0,-1,-1,-1,-1,-1,-1,-1,Mart-Ac
-1,-1,-1,-1,-1,-1,-1,-1,-1,-1,-1,-1,-1,-1,-1,-1,-1,-1,-1,-1,-1,-1,-1,-1,1,2.04,150.0,2,690.0,10.0,-1,-1,-1,-1,40.0,204.0,-1,-1,-1,-1,-1,-1,-1,Mart-Ai
-1,-1,-1,-1,-1,-1,-1,-1,-1,-1,-1,-1,-1,-1,-1,-1,-1,-1,-1,-1,-1,-1,-1,-1,1,1.96,150.0,2,690.0,10.0,-1,-1,-1,-1,-40,15.0,-1,-1,-1,-1,-1,-1,-1,Mart-Bc
-1,-1,-1,-1,-1,-1,-1,-1,-1,-1,-1,-1,-1,-1,-1,-1,-1,-1,-1,-1,-1,-1,-1,-1,1,2.08,150.0,2,690.0,10.0,505.0,600.0,19.0,69.0,-1,-1,-1,-1,-1,-1,-1,-1,-1,Mart-C
-1,-1,-1,-1,-1,-1,-1,-1,-1,-1,-1,-1,-1,-1,-1,-1,-1,-1,-1,-1,-1,-1,-1,-1,1,2.08,150.0,2,690.0,10.0,-1,-1,-1,-1,20.0,65.0,-1,-1,-1,-1,-1,-1,-1,Mart-Cf
-1,-1,-1,-1,-1,-1,-1,-1,-1,-1,-1,-1,-1,-1,-1,-1,-1,-1,-1,-1,-1,-1,-1,-1,1,1.96,150.0,2,690.0,10.0,-1,-1,-1,-1,-40,49.0,-1,-1,-1,-1,-1,-1,-1,Mart-Dd
-1,-1,-1,-1,-1,-1,-1,-1,-1,-1,-1,-1,-1,-1,-1,-1,-1,-1,-1,-1,-1,-1,-1,-1,1,2.08,150.0,2,690.0,10.0,537.0,620.0,11.0,24.0,-1,-1,-1,-1,-1,-1,-1,-1,-1,Mart-E
-1,-1,-1,-1,-1,-1,-1,-1,-1,-1,-1,-1,-1,-1,-1,-1,-1,-1,-1,-1,-1,-1,-1,-1,1,2.08,150.0,2,690.0,10.0,-1,-1,-1,-1,20.0,96.0,-1,-1,-1,-1,-1,-1,-1,Mart-Ef
-1,-1,-1,-1,-1,-1,-1,-1,-1,-1,-1,-1,-1,-1,-1,-1,-1,-1,-1,-1,-1,-1,-1,-1,1,2.0,150.0,2,690.0,10.0,-1,-1,-1,-1,-60,3.0,-1,-1,-1,-1,-1,-1,-1,Mart-Fb
-1,-1,-1,-1,-1,-1,-1,-1,-1,-1,-1,-1,-1,-1,-1,-1,-1,-1,-1,-1,-1,-1,-1,-1,1,2.0,150.0,2,690.0,10.0,-1,-1,-1,-1,50.0,93.0,-1,-1,-1,-1,-1,-1,-1,Mart-Fh
-1,-1,-1,-1,-1,-1,-1,-1,-1,-1,-1,-1,-1,-1,-1,-1,-1,-1,-1,-1,-1,-1,-1,-1,1,2.0,150.0,2,690.0,10.0,-1,-1,-1,-1,-40,19.0,-1,-1,-1,-1,-1,-1,-1,Mart-Gc
-1,-1,-1,-1,-1,-1,-1,-1,-1,-1,-1,-1,-1,-1,-1,-1,-1,-1,-1,-1,-1,-1,-1,-1,1,2.0,150.0,2,690.0,10.0,-1,-1,-1,-1,70.0,71.0,-1,-1,-1,-1,-1,-1,-1,Mart-Gi
-1,-1,-1,-1,-1,-1,-1,-1,-1,-1,-1,-1,-1,-1,-1,-1,-1,-1,-1,-1,-1,-1,-1,-1,1,1.0,300.0,0,690.0,3.0,593.0,698.0,17.0,67.0,-1,-1,231.0,-1,-1,-1,-1,-1,-1,Wolst-1974-A
-1,-1,-1,-1,-1,-1,-1,-1,-1,-1,-1,-1,-1,-1,-1,-1,-1,-1,-1,-1,-1,-1,-1,-1,1,1.0,300.0,0,690.0,3.0,536.0,652.0,20.0,73.0,-1,-1,220.0,-1,-1,-1,-1,-1,-1,Wolst-1974-K
-1,-1,-1,-1,-1,-1,-1,-1,-1,-1,-1,-1,-1,-1,-1,-1,-1,-1,-1,-1,-1,-1,-1,-1,1,1.0,300.0,0,690.0,3.0,576.0,678.0,17.0,70.0,-1,-1,230.0,-1,-1,-1,-1,-1,-1,Wolst-1974-AM4
-1,-1,-1,-1,-1,-1,-1,-1,-1,-1,-1,-1,-1,-1,-1,-1,-1,-1,-1,-1,-1,-1,-1,-1,1,1.0,300.0,0,690.0,3.0,603.0,705.0,19.0,66.0,-1,-1,239.0,-1,-1,-1,-1,-1,-1,Wolst-1974-AT0.75
-1,-1,-1,-1,-1,-1,-1,-1,-1,-1,-1,-1,-1,-1,-1,-1,-1,-1,-1,-1,-1,-1,-1,-1,1,1.0,300.0,0,690.0,3.0,-1,-1,-1,-1,-1,-1,253.0,-1,-1,-1,-1,-1,-1,Wolst-1974-S35
-1,-1,-1,-1,-1,-1,-1,-1,-1,-1,-1,-1,-1,-1,-1,-1,-1,-1,-1,-1,-1,-1,-1,-1,1,1.0,300.0,0,690.0,3.0,-1,-1,-1,-1,-1,-1,212.0,-1,-1,-1,-1,-1,-1,Wolst-1974-FF
-1,-1,-1,-1,-1,-1,-1,-1,-1,-1,-1,-1,-1,-1,-1,-1,-1,-1,-1,-1,-1,-1,-1,-1,1,1.75,210.0,1,700.0,20.0,527.0,627.0,-1,-1,-1,-1,-1,-1,-1,-1,-1,-1,-1,Ditt-0.5t
-1,-1,-1,-1,-1,-1,-1,-1,-1,-1,-1,-1,-1,-1,-1,-1,-1,-1,-1,-1,-1,-1,-1,-1,1,1.75,210.0,1,700.0,20.0,-1,-1,-1,-1,-10,175.0,-1,-1,-1,-1,-1,-1,-1,Ditt-0.5ach2
-1,-1,-1,-1,-1,-1,-1,-1,-1,-1,-1,-1,-1,-1,-1,-1,-1,-1,-1,-1,-1,-1,-1,-1,1,1.75,210.0,1,700.0,20.0,504.0,612.0,-1,-1,-1,-1,-1,-1,-1,-1,-1,-1,-1,Ditt-iat
-1,-1,-1,-1,-1,-1,-1,-1,-1,-1,-1,-1,-1,-1,-1,-1,-1,-1,-1,-1,-1,-1,-1,-1,1,2.025,250.0,1,200.0,1.0,408.0,501.0,32.6,77.0,-1,-1,-1,-1,-1,-1,-1,-1,-1,p9-RR82011
-1,-1,-1,-1,-1,-1,-1,-1,-1,-1,-1,-1,-1,-1,-1,-1,-1,-1,-1,-1,-1,-1,-1,-1,1,4.8,100.0,1,200.0,1.0,337.0,477.0,32.6,71.0,-1,-1,-1,-1,-1,-1,-1,-1,-1,p12-RR82011
-1,-1,-1,-1,-1,-1,-1,-1,-1,-1,-1,-1,-1,-1,-1,-1,-1,-1,-1,-1,-1,-1,-1,-1,1,2.925,250.0,1,200.0,1.0,439.0,543.0,28.8,75.0,-1,-1,-1,-1,-1,-1,-1,-1,-1,p15-RR82011
-1,-1,-1,-1,-1,-1,-1,-1,-1,-1,-1,-1,-1,-1,-1,-1,-1,-1,-1,-1,-1,-1,-1,-1,1,2.475,250.0,1,200.0,1.0,383.0,487.0,32.4,77.0,-1,-1,-1,-1,-1,-1,-1,-1,-1,p22-RR82011
-1,-1,-1,-1,-1,-1,-1,-1,-1,-1,-1,-1,-1,-1,-1,-1,-1,-1,-1,-1,-1,-1,-1,-1,1,2.475,250.0,1,200.0,1.0,439.0,549.0,28.8,71.0,-1,-1,-1,-1,-1,-1,-1,-1,-1,p25-RR82011
-1,-1,-1,-1,-1,-1,-1,-1,-1,-1,-1,-1,-1,-1,-1,-1,-1,-1,-1,-1,-1,-1,-1,-1,1,2.925,250.0,1,200.0,1.0,435.0,546.0,27.0,73.0,-1,-1,-1,-1,-1,-1,-1,-1,-1,p26-RR82011
-1,-1,-1,-1,-1,-1,-1,-1,-1,-1,-1,-1,-1,-1,-1,-1,-1,-1,-1,-1,-1,-1,-1,-1,1,2.925,250.0,1,200.0,1.0,449.0,540.0,26.8,66.0,-1,-1,-1,-1,-1,-1,-1,-1,-1,p30-RR82011
-1,-1,-1,-1,-1,-1,-1,-1,-1,-1,-1,-1,-1,-1,-1,-1,-1,-1,-1,-1,-1,-1,-1,-1,1,2.925,250.0,1,200.0,1.0,481.0,577.0,27.8,65.0,-1,-1,-1,-1,-1,-1,-1,-1,-1,p33-RR82011
-1,-1,-1,-1,-1,-1,-1,-1,-1,-1,-1,-1,-1,-1,-1,-1,-1,-1,-1,-1,-1,-1,-1,-1,1,2.925,250.0,1,200.0,1.0,516.0,613.0,25.4,59.0,-1,-1,-1,-1,-1,-1,-1,-1,-1,p36-RR82011
-1,-1,-1,-1,-1,-1,-1,-1,-1,-1,-1,-1,-1,-1,-1,-1,-1,-1,-1,-1,-1,-1,-1,-1,-1,1.0,200.0,0,250.0,14.0,-1,-1,-1,-1,-63,100.0,-1,-1,-1,-1,-1,-1,-1,EvansLetter-Ao+1Nich1
-1,-1,-1,-1,-1,-1,-1,-1,-1,-1,-1,-1,-1,-1,-1,-1,-1,-1,-1,-1,-1,-1,-1,-1,-1,1.0,200.0,0,250.0,14.0,-1,-1,-1,-1,-65,100.0,-1,-1,-1,-1,-1,-1,-1,EvansLetter-Ao+3Nich1
-1,-1,-1,-1,-1,-1,-1,-1,-1,-1,-1,-1,-1,-1,-1,-1,-1,-1,-1,-1,-1,-1,-1,-1,-1,1.0,200.0,0,250.0,14.0,-1,-1,-1,-1,-42,100.0,-1,-1,-1,-1,-1,-1,-1,EvansLetter-Ao+.5Moch1
-1,-1,-1,-1,-1,-1,-1,-1,-1,-1,-1,-1,-1,-1,-1,-1,-1,-1,-1,-1,-1,-1,-1,-1,-1,1.0,200.0,0,250.0,14.0,-1,-1,-1,-1,-40,100.0,-1,-1,-1,-1,-1,-1,-1,EvansLetter-Ao+1Crch1
-1,-1,-1,-1,-1,-1,-1,-1,-1,-1,-1,-1,-1,-1,-1,-1,-1,-1,-1,-1,-1,-1,-1,-1,-1,1.0,200.0,0,250.0,14.0,-1,-1,-1,-1,26.0,100.0,-1,-1,-1,-1,-1,-1,-1,EvansLetter-Ao+2Crch1
-1,-1,-1,-1,-1,-1,-1,-1,-1,-1,-1,-1,-1,-1,-1,-1,-1,-1,-1,-1,-1,-1,-1,-1,-1,1.0,200.0,0,250.0,14.0,-1,-1,-1,-1,-54,100.0,-1,-1,-1,-1,-1,-1,-1,EvansLetter-Ao+1Cuch1
-1,-1,-1,-1,-1,-1,-1,-1,-1,-1,-1,-1,-1,-1,-1,-1,-1,-1,-1,-1,-1,-1,-1,-1,-1,1.0,200.0,0,250.0,14.0,-1,-1,-1,-1,-45,100.0,-1,-1,-1,-1,-1,-1,-1,EvansLetter-A+ch1
-1,-1,-1,-1,-1,-1,-1,-1,-1,-1,-1,-1,-1,-1,-1,-1,-1,-1,-1,-1,-1,-1,-1,-1,-1,1.0,200.0,0,250.0,14.0,-1,-1,-1,-1,-83,100.0,-1,-1,-1,-1,-1,-1,-1,EvansLetter-A+2Nich1
-1,-1,-1,-1,-1,-1,-1,-1,-1,-1,-1,-1,-1,-1,-1,-1,-1,-1,-1,-1,-1,-1,-1,-1,-1,1.0,200.0,0,250.0,14.0,-1,-1,-1,-1,-58,100.0,-1,-1,-1,-1,-1,-1,-1,EvansLetter-A+.25Moch1
-1,-1,-1,-1,-1,-1,-1,-1,-1,-1,-1,-1,-1,-1,-1,-1,-1,-1,-1,-1,-1,-1,-1,-1,-1,1.0,200.0,0,250.0,14.0,-1,-1,-1,-1,-33,100.0,-1,-1,-1,-1,-1,-1,-1,EvansLetter-A+1Moch1
-1,-1,-1,-1,-1,-1,-1,-1,-1,-1,-1,-1,-1,-1,-1,-1,-1,-1,-1,-1,-1,-1,-1,-1,-1,1.0,200.0,0,250.0,14.0,-1,-1,-1,-1,-8,100.0,-1,-1,-1,-1,-1,-1,-1,EvansLetter-A+1.5Crch1
-1,-1,-1,-1,-1,-1,-1,-1,-1,-1,-1,-1,-1,-1,-1,-1,-1,-1,-1,-1,-1,-1,-1,-1,-1,1.0,200.0,0,250.0,14.0,-1,-1,-1,-1,-62,100.0,-1,-1,-1,-1,-1,-1,-1,EvansLetter-A+0.5Cuch1
-1,-1,-1,-1,-1,-1,-1,-1,-1,-1,-1,-1,-1,-1,-1,-1,-1,-1,-1,-1,-1,-1,-1,-1,-1,1.0,200.0,0,250.0,14.0,-1,-1,-1,-1,-43,100.0,-1,-1,-1,-1,-1,-1,-1,EvansLetter-A+1.5Cuch1
-1,-1,-1,-1,-1,-1,-1,-1,-1,-1,-1,-1,-1,-1,-1,-1,-1,-1,-1,-1,-1,-1,-1,-1,-1,1.0,200.0,0,250.0,14.0,-1,-1,-1,-1,-13,100.0,-1,-1,-1,-1,-1,-1,-1,EvansLetterCo+1Nich1
-1,-1,-1,-1,-1,-1,-1,-1,-1,-1,-1,-1,-1,-1,-1,-1,-1,-1,-1,-1,-1,-1,-1,-1,-1,1.0,200.0,0,250.0,14.0,-1,-1,-1,-1,-12,100.0,-1,-1,-1,-1,-1,-1,-1,EvansLetterCo+3Nich1
-1,-1,-1,-1,-1,-1,-1,-1,-1,-1,-1,-1,-1,-1,-1,-1,-1,-1,-1,-1,-1,-1,-1,-1,-1,1.0,200.0,0,250.0,14.0,-1,-1,-1,-1,-4,100.0,-1,-1,-1,-1,-1,-1,-1,EvansLetterCo+.5Moch1
-1,-1,-1,-1,-1,-1,-1,-1,-1,-1,-1,-1,-1,-1,-1,-1,-1,-1,-1,-1,-1,-1,-1,-1,-1,1.0,200.0,0,250.0,14.0,-1,-1,-1,-1,-20,100.0,-1,-1,-1,-1,-1,-1,-1,EvansLetterCo+1Crch1
-1,-1,-1,-1,-1,-1,-1,-1,-1,-1,-1,-1,-1,-1,-1,-1,-1,-1,-1,-1,-1,-1,-1,-1,-1,1.0,200.0,0,250.0,14.0,-1,-1,-1,-1,24.0,100.0,-1,-1,-1,-1,-1,-1,-1,EvansLetterCo+2Crch1
-1,-1,-1,-1,-1,-1,-1,-1,-1,-1,-1,-1,-1,-1,-1,-1,-1,-1,-1,-1,-1,-1,-1,-1,-1,1.0,200.0,0,250.0,14.0,-1,-1,-1,-1,-4,100.0,-1,-1,-1,-1,-1,-1,-1,EvansLetterCo+1Chch1
-1,-1,-1,-1,-1,-1,-1,-1,-1,-1,-1,-1,-1,-1,-1,-1,-1,-1,-1,-1,-1,-1,-1,-1,-1,1.0,200.0,0,250.0,14.0,-1,-1,-1,-1,-68,100.0,-1,-1,-1,-1,-1,-1,-1,EvansLetterC+ch1
-1,-1,-1,-1,-1,-1,-1,-1,-1,-1,-1,-1,-1,-1,-1,-1,-1,-1,-1,-1,-1,-1,-1,-1,-1,1.0,200.0,0,250.0,14.0,-1,-1,-1,-1,-58,100.0,-1,-1,-1,-1,-1,-1,-1,EvansLetterC+2Nich1
-1,-1,-1,-1,-1,-1,-1,-1,-1,-1,-1,-1,-1,-1,-1,-1,-1,-1,-1,-1,-1,-1,-1,-1,-1,1.0,200.0,0,250.0,14.0,-1,-1,-1,-1,-69,100.0,-1,-1,-1,-1,-1,-1,-1,EvansLetterC+.25Moch1
-1,-1,-1,-1,-1,-1,-1,-1,-1,-1,-1,-1,-1,-1,-1,-1,-1,-1,-1,-1,-1,-1,-1,-1,-1,1.0,200.0,0,250.0,14.0,-1,-1,-1,-1,-39,100.0,-1,-1,-1,-1,-1,-1,-1,EvansLetterC+1Moch1
-1,-1,-1,-1,-1,-1,-1,-1,-1,-1,-1,-1,-1,-1,-1,-1,-1,-1,-1,-1,-1,-1,-1,-1,-1,1.0,200.0,0,250.0,14.0,-1,-1,-1,-1,-38,100.0,-1,-1,-1,-1,-1,-1,-1,EvansLetterC+1.5Crch1
-1,-1,-1,-1,-1,-1,-1,-1,-1,-1,-1,-1,-1,-1,-1,-1,-1,-1,-1,-1,-1,-1,-1,-1,-1,1.0,200.0,0,250.0,14.0,-1,-1,-1,-1,-57,100.0,-1,-1,-1,-1,-1,-1,-1,EvansLetterC+.5Cuch1
-1,-1,-1,-1,-1,-1,-1,-1,-1,-1,-1,-1,-1,-1,-1,-1,-1,-1,-1,-1,-1,-1,-1,-1,-1,1.0,200.0,0,250.0,14.0,-1,-1,-1,-1,-15,100.0,-1,-1,-1,-1,-1,-1,-1,EvansLetterC+1.5Cuch1
-1,-1,-1,-1,-1,-1,-1,-1,-1,-1,-1,-1,-1,-1,-1,-1,-1,-1,-1,-1,-1,-1,-1,-1,1,2.0,200.0,1,760.0,2.0,834.0,-1,-1,-1,-1,-1,-1,-1,-1,-1,-1,-1,-1,Birmingham-MAX35
-1,-1,-1,-1,-1,-1,-1,-1,-1,-1,-1,-1,-1,-1,-1,-1,-1,-1,-1,-1,-1,-1,-1,-1,1,2.0,200.0,1,760.0,2.0,-1,-1,-1,-1,-1,-1,-1,-1,-1,-1,-1,-1,-1,Birmingham-MAX39