File: Dataset/weld_data_preprocessing1.0.csv
Carbon concentration (weight%),Silicon concentration (weight%),Manganese concentration (weight%),Sulphur concentration (weight%),Phosphorus concentration (weight%),Oxygen concentration (%),Titanium concentration (%),Nitrogen concentration (%),Current (A),Voltage (V),Heat input (kJ/mm),Interpass temperature (deg C),Post weld heat treatment temperature (deg C),Post weld heat treatment time (hours),Nickel concentration (weight%),Chromium concentration (weight%),Molybdenum concentration (weight%),Vanadium concentration (weight%),Copper concentration (weight%),Aluminium concentration (%),Boron concentration (%),Niobium concentration (%),Tin concentration (%),Arsenic concentration (%),Antimony concentration (%),Yield strength (MPa),Ultimate tensile strength (MPa),Elongation (%),Reduction of Area (%),Charpy temperature (deg C),Charpy impact toughness (J),Hardness (kg/mm2),Primary ferrite in microstructure (%),Ferrite with second phase (%),Acicular ferrite (%),AC or DC,Electrode positive or negative,Type of weld,Weld ID
0.037,0.3,0.65,0.008,0.012,0.0422,0.0042,0.008,170.0,21.0,1.0,200.0,250.0,14.0,0.0,1.04509,-1.33255,-0.0112067,-0.0992178,0.0039423,0.000236109,0.00142705,-0.00645238,0.00577941,-0.00108709,392.0,466.0,31.9,80.6,11.4993,127.485,251.47,-52.371,1.91389,149.645,0.0,1,0,Evans-Ni/CMn-1990/1991-0Aaw
0.044,0.35,1.43,0.007,0.014,0.0422,0.0042,0.008,170.0,21.0,1.0,200.0,0.0,0.0,0.0,-0.115649,0.591321,0.118535,-0.43182,0.0106279,0.000427471,0.0157374,0.0106124,0.00229854,0.00747761,558.965,707.953,21.6633,60.5347,-53.0,100.0,211.306,3.08276,40.8149,40.9119,0.0,1,0,Evans-Ni/CMn-1990/1991-0Cawch
0.041,0.33,1.01,0.006,0.011,0.0422,0.0042,0.008,170.0,21.0,1.0,200.0,250.0,14.0,0.49,-0.744561,-0.170131,0.0169451,0.521753,-0.00196773,0.000703734,-0.0379569,0.00161062,0.00764414,0.00206754,464.0,522.0,29.6,77.8,-81.5927,60.2723,233.589,10.9226,14.0487,67.1503,0.0,1,0,Evans-Ni/CMn-1990/1991-0.5Baw
0.049,0.33,1.85,0.006,0.014,0.0422,0.0042,0.008,170.0,21.0,1.0,200.0,580.0,2.0,0.51,-0.906237,0.55605,0.000800129,0.313609,0.0338848,0.000602038,0.00694727,0.00198596,-0.00449952,0.0178897,526.0,612.0,26.8,72.9,-102.337,87.518,174.313,19.5909,1.21685,67.2441,0.0,1,0,Evans-Ni/CMn-1990/1991-0.5Dht
0.049,0.35,1.37,0.007,0.013,0.0422,0.0042,0.008,170.0,21.0,1.0,200.0,250.0,14.0,1.06,-0.44796,-0.471362,0.116347,0.48314,0.0167877,0.000582362,-0.0038472,0.000666699,-0.0026592,0.0199607,498.0,569.0,28.4,78.8,-72.0274,181.804,282.984,19.778,33.0943,28.5876,0.0,1,0,Evans-Ni/CMn-1990/1991-1Caw
0.041,0.3,0.62,0.007,0.01,0.0422,0.0042,0.008,170.0,21.0,1.0,200.0,0.0,0.0,2.38,-2.85535,-0.88668,-0.113222,0.423126,0.0309981,-0.000135494,0.00169802,0.00307117,0.00625009,-0.00176644,588.607,612.364,24.1587,72.1122,-50.0,100.0,268.225,-9.30993,42.5795,59.6949,0.0,1,0,Evans-Ni/CMn-1990/1991-2.25Aawch
0.049,0.32,1.41,0.007,0.014,0.0422,0.0042,0.008,170.0,21.0,1.0,200.0,580.0,2.0,2.32,-6.01145,-0.0754535,-0.117292,0.175602,0.0265329,0.000559692,-0.0171503,-0.00155567,-0.00848667,0.0122758,530.0,615.0,26.6,73.0,-20.0,100.0,229.075,23.7433,66.1414,10.0446,0.0,1,0,Evans-Ni/CMn-1990/1991-2.25Cht
0.075,0.36,1.48,0.007,0.006,0.039,0.004,0.008,170.0,21.0,1.0,150.0,580.0,2.0,-0.758806,2.51466,1.87319,0.0862036,0.11,-0.0123627,-5.21535e-05,0.0425287,0.0118498,0.0177395,-0.00621164,462.0,548.0,29.8,77.9,-88.282,23.6772,205.175,-60.7297,58.0815,101.193,0.0,1,0,Es-Souni&-Cu/CMn-1990-0.2ht
0.074,0.29,1.49,0.006,0.013,0.0471,0.0005,0.0072,170.0,21.0,1.0,200.0,250.0,14.0,-0.664064,4.29387,-0.470457,0.381829,0.216786,0.0006,0.00293224,0.0469582,0.0130191,0.0148849,0.0125474,431.0,527.0,29.6,78.0,-39.7567,135.344,249.597,38.878,-14.9281,73.4855,0.0,1,0,Evans-AlTi-1994-5/6ht
0.081,0.29,1.43,0.006,0.013,0.0461,0.0005,0.0054,170.0,21.0,1.0,200.0,0.0,0.0,-0.324494,-2.91573,0.48903,-0.00787464,-0.243659,0.006,-0.000662666,-0.0287979,-0.00470446,0.00152089,-0.000500755,421.124,450.414,28.7823,85.2883,-13.7167,168.865,230.014,45.0,46.0,9.0,0.0,1,0,Evans-AlTi-1994-5/60awmic
0.079,0.39,1.37,0.005,0.011,0.0446,0.0005,0.0047,170.0,21.0,1.0,200.0,0.0,0.0,1.04621,1.15893,0.360985,0.183307,0.0394353,0.025,0.00083373,-0.00630368,0.0112594,-0.00522064,0.0169738,583.046,665.756,24.6022,69.9768,-25.0,100.0,267.253,18.1773,31.4542,50.3147,0.0,1,0,Evans-AlTi-1994-5/250ch2
0.069,0.3,1.36,0.007,0.009,0.0432,0.0037,0.0068,170.0,21.0,1.0,200.0,0.0,0.0,-0.54026,1.41022,0.309362,0.00643745,0.252208,0.0005,-0.000372567,0.0154177,0.0022501,0.00351231,-4.96669e-05,451.788,573.426,31.5901,76.3889,-99.0,28.0,167.163,-0.190772,43.5636,46.6691,0.0,1,0,Evans-AlTi-1994-40/5ch1
0.076,0.37,1.36,0.005,0.009,0.0422,0.0036,0.0053,170.0,21.0,1.0,200.0,250.0,14.0,1.46806,-0.135635,-0.825104,-0.161425,0.623453,0.019,-0.000865453,-0.0204773,0.00938902,0.0123824,0.0075758,485.0,549.0,31.4,79.8,-33.7895,118.37,277.977,8.32831,24.1155,72.5481,0.0,1,0,Evans-AlTi-1994-40/190ht
0.078,0.44,1.31,0.005,0.008,0.0431,0.0036,0.005,170.0,21.0,1.0,200.0,0.0,0.0,1.29856,4.88644,0.104362,-0.0321961,-0.346007,0.034,0.000199847,0.00673979,0.000997133,0.00666838,0.015248,494.383,581.533,26.4506,78.6758,-33.9829,146.795,213.916,21.0,7.0,72.0,0.0,1,0,Evans-AlTi-1994-40/340mic
0.074,0.32,1.5,0.006,0.006,0.0375,0.0099,0.0089,170.0,21.0,1.0,200.0,0.0,0.0,0.0879452,-1.34224,0.263775,-0.11714,-0.17911,0.0008,0.0011454,-0.0295646,0.00856919,0.0145834,0.00503764,400.657,450.278,30.6004,86.6802,-52.0,100.0,264.404,39.818,-12.3084,60.8239,0.0,1,0,Evans-AlTi-1994-80/8ht
0.069,0.45,1.36,0.005,0.008,0.0374,0.0063,0.0044,170.0,21.0,1.0,200.0,250.0,14.0,0.358897,4.42234,0.156435,-0.0396319,0.725679,0.028,-0.000171906,-0.0134503,-0.00726223,0.00309718,0.012546,474.0,540.0,28.0,80.7,7.30447,99.1095,196.022,28.1559,67.5771,-6.05539,0.0,1,0,Evans-AlTi-1994-80/280ht
0.081,0.34,1.54,0.007,0.008,0.0312,0.018,0.008,170.0,21.0,1.0,200.0,0.0,0.0,0.793389,-1.37918,-1.21106,-0.0859916,0.0851027,0.0003,6.61463e-05,-0.00926111,-0.00936494,-0.00272143,-0.00384064,533.79,669.985,25.7168,63.8796,-67.0,28.0,286.871,15.5049,39.1578,40.3407,0.0,1,0,Evans-AlTi-1994-220/3ch1
0.072,0.34,1.33,0.006,0.008,0.0427,0.019,0.0057,170.0,21.0,1.0,200.0,250.0,14.0,-0.127251,6.41539,-0.090222,0.0877829,0.382438,0.015,0.00136596,-0.0110586,-0.00471231,-0.0230847,-0.00471379,467.0,522.0,29.2,77.0,-12.7887,162.502,201.677,18.6147,60.3315,-2.90142,0.0,1,0,Evans-AlTi-1994-220/150
0.074,0.41,1.36,0.005,0.005,0.0418,0.026,0.0049,170.0,21.0,1.0,200.0,0.0,0.0,-0.492656,2.84235,0.686353,0.011415,0.531818,0.032,0.000199577,0.0302199,0.00838963,0.0102409,0.00878673,444.107,489.445,29.5406,83.0793,-12.8435,79.5077,227.382,23.0,9.0,68.0,0.0,1,0,Evans-AlTi-1994-220/320ch2
0.094,0.17,1.0,0.008,0.012,0.0636,0.0042,0.016,180.0,34.0,1.0,175.0,750.0,8.0,0.504641,8.99,1.03,0.21,-0.359159,-1.98983e-05,0.0003,0.052,0.00797062,-0.00438035,0.00345444,675.205,759.84,23.6638,66.262,0.0,50.0,279.076,-6.3291,108.307,-9.4983,0.0,1,0,Evans-B/9Cr1Mo-1994-CM61
0.086,0.2,1.04,0.008,0.013,0.0567,0.0042,0.016,180.0,34.0,1.0,175.0,750.0,8.0,0.520298,8.98,1.01,0.22,0.4433,0.0157218,0.0036,0.056,0.016642,0.0105987,0.00755786,414.081,483.314,28.2886,81.6159,-19.0,28.0,271.847,35.7434,55.1367,7.988,0.0,1,0,Evans-B/9Cr1Mo-1994-CM63
0.037,0.31,1.03,0.007,0.014,0.0422,0.0042,0.008,170.0,21.0,1.0,200.0,580.0,2.0,0.385883,0.0,-0.402661,0.0619711,-0.0844794,-0.00412875,-0.000689833,-0.0041809,0.00081595,0.00222173,0.0123002,402.0,490.0,31.0,80.6,-44.0,100.0,171.475,50.1478,62.2161,-21.3962,0.0,1,0,Evans-Cr/CMn-1989-0B-ht
0.045,0.33,1.85,0.007,0.016,0.0422,0.0042,0.008,170.0,21.0,1.0,200.0,0.0,0.0,-0.484706,0.0,0.253347,0.162916,0.03353,0.00742826,0.00122746,0.0392245,0.0140918,-0.00102025,0.00185842,482.018,583.609,28.0037,80.4677,-45.0,100.0,235.603,13.0,16.0,71.0,0.0,1,0,Evans-Cr/CMn-1989-0D-ch
0.044,0.32,1.45,0.007,0.013,0.0422,0.0042,0.008,170.0,21.0,1.0,200.0,580.0,2.0,0.741522,0.24,-0.42262,-0.137902,0.119753,0.00931864,0.000678839,-0.000550027,-0.00718001,-0.00660176,0.00674738,468.0,559.0,28.0,76.9,-49.8275,4.52493,103.98,26.4044,73.2403,12.781,0.0,1,0,Evans-Cr/CMn-1989-0.25C-ht
0.043,0.31,0.95,0.007,0.01,0.0422,0.0042,0.008,170.0,21.0,1.0,200.0,250.0,14.0,-0.228349,0.53,0.686021,0.0163906,0.229337,0.00357968,0.000976323,-0.0153068,-0.0117413,-0.0126475,0.0113031,494.0,545.0,29.6,77.0,-78.0632,48.128,194.517,44.9371,30.2588,26.6487,0.0,1,0,Evans-Cr/CMn-1989-0.5B-aw
0.051,0.33,1.83,0.006,0.013,0.0422,0.0042,0.008,170.0,21.0,1.0,200.0,580.0,2.0,0.609486,0.52,0.538305,0.1339,-0.151145,0.0372616,-0.000439943,0.0219358,0.00832133,0.00378682,0.00135745,570.0,650.0,24.0,68.7,-2.0,100.0,205.777,-37.1178,-0.000814327,123.443,0.0,1,0,Evans-Cr/CMn-1989-0.5D-ht
0.045,0.32,0.97,0.007,0.012,0.0422,0.0042,0.008,170.0,21.0,1.0,200.0,0.0,0.0,0.1139,1.04,0.8103,0.019933,-0.303039,0.0263798,0.000327685,0.0130421,0.00219777,0.0056082,0.0109173,505.807,632.681,25.5379,71.6035,-42.0,100.0,281.513,9.0,28.0,63.0,0.0,1,0,Evans-Cr/CMn-1989-1.0B-ch
0.041,0.27,0.59,0.009,0.011,0.0422,0.0042,0.008,170.0,21.0,1.0,200.0,250.0,14.0,0.0779197,2.34,-0.037674,0.0233973,0.225489,-0.00532709,-0.000518036,0.0437709,0.00528436,-0.00392297,0.00701004,587.0,652.0,21.4,72.0,-46.6999,83.1526,293.257,-20.0485,25.4721,99.2357,0.0,1,0,Evans-Cr/CMn-1989-2.3A-aw
0.05,0.31,1.29,0.008,0.011,0.0422,0.0042,0.008,170.0,21.0,1.0,200.0,580.0,2.0,1.34127,2.32,0.475887,0.111219,0.0624351,-0.01283,0.000887303,0.0127449,0.00658201,0.00101305,0.0141404,662.0,731.0,18.6,68.7,28.0,100.0,237.591,-10.5549,-12.7628,125.996,0.0,1,0,Evans-Cr/CMn-1989-2.3C-ht
0.069,0.3,1.36,0.007,0.009,0.0432,0.0037,0.0067,170.0,21.0,1.0,200.0,580.0,2.0,0.529267,2.10848,0.955573,0.0005,-0.0779124,0.0005,0.0005,0.0005,-0.00731494,0.000339837,-0.00106759,393.0,500.0,31.8,77.0,59.6668,264.321,160.354,6.61804,7.92351,92.1033,0.0,1,0,Evans-Al/CMn-1990-<5ht
0.073,0.33,1.39,0.007,0.008,0.0427,0.0039,0.0066,170.0,21.0,1.0,200.0,580.0,2.0,1.42332,0.884886,0.175551,0.0005,0.59632,0.002,0.0005,0.0005,-0.00759058,-0.00348146,-0.00149838,662.36,665.052,23.618,78.3722,-78.0,100.0,224.921,34.3034,42.4214,33.7037,0.0,1,0,Evans-Al/CMn-1990-20htch2
0.08,0.33,1.41,0.006,0.009,0.0432,0.0043,0.0061,170.0,21.0,1.0,200.0,250.0,14.0,0.523632,-0.397672,-1.3106,0.0005,0.182212,0.0078,0.0005,0.0005,0.026569,0.0115193,0.00375789,478.0,540.0,31.2,80.7,-111.957,13.0719,275.169,12.1323,16.196,61.6353,0.0,1,0,Evans-Al/CMn-1990-78aw
0.08,0.37,1.42,0.006,0.009,0.0439,0.0043,0.0054,170.0,21.0,1.0,200.0,250.0,14.0,0.426379,3.20194,1.02255,0.0005,-0.256659,0.012,0.0005,0.0005,-0.00650292,-0.00157752,-0.000752038,480.0,543.0,29.0,78.9,-32.1624,98.2059,195.196,-6.255,47.2097,58.8283,0.0,1,0,Evans-Al/CMn-1990-120aw
0.076,0.37,1.36,0.005,0.009,0.0422,0.0036,0.0054,170.0,21.0,1.0,200.0,0.0,0.0,0.943091,0.15095,-0.131562,0.0005,0.961677,0.019,0.0005,0.0005,-0.00418981,-0.00947928,0.00465269,501.764,608.366,30.444,70.3469,-86.0,28.0,233.297,18.4781,20.034,47.9655,0.0,1,0,Evans-Al/CMn-1990-190awch1
0.078,0.44,1.31,0.005,0.008,0.0431,0.0036,0.0052,170.0,21.0,1.0,200.0,0.0,0.0,1.00064,-0.435083,-0.121779,0.0005,-0.0577244,0.034,0.0005,0.0005,-0.00809521,0.00539785,-0.00263645,451.165,552.296,23.6722,64.6919,-88.0,28.0,210.377,25.7499,31.674,46.9723,0.0,1,0,Evans-Al/CMn-1990-340awch1
0.076,0.51,1.3,0.005,0.008,0.0423,0.0043,0.005,170.0,21.0,1.0,200.0,0.0,0.0,-0.477045,1.23763,1.07697,0.0005,0.482737,0.049,0.0005,0.0005,0.000761804,-0.00428389,0.00596888,406.859,518.306,22.3221,77.7121,-90.0,28.0,169.525,4.79058,9.5187,62.0565,0.0,1,0,Evans-Al/CMn-1990-490awch1
0.073,0.35,0.64,0.005,0.004,0.0428,0.0038,0.0077,170.0,21.0,1.0,200.0,0.0,0.0,-0.119847,2.33978,0.610293,0.0003,-0.121747,0.0005,0.0005,0.0005,-0.00458467,-0.00567546,-0.000145292,261.674,379.819,37.079,82.5435,-45.0,100.0,219.034,48.0,26.0,26.0,0.0,1,0,Evans-V/Mn-1991-A3awch
0.071,0.4,0.64,0.008,0.006,0.0411,0.0036,0.0088,170.0,21.0,1.0,200.0,580.0,2.0,0.0171195,0.164501,-0.0314254,0.0435,-0.221918,0.0005,0.0005,0.0005,-0.00359542,-0.000985733,0.00809253,446.0,526.0,34.088,76.0,-30.0,100.0,214.918,48.762,-64.5526,122.464,0.0,1,0,Evans-V/Mn-1991-A435ht
0.077,0.35,1.02,0.007,0.005,0.0399,0.0041,0.0075,170.0,21.0,1.0,200.0,250.0,14.0,0.942488,0.0484835,1.07664,0.0004,0.28297,0.0005,0.0005,0.0005,0.0196064,0.0209395,0.00321195,443.0,522.0,31.1,77.0,-33.0992,57.9576,178.728,0.0981307,45.2286,46.5719,0.0,1,0,Evans-V/Mn-1991-B4aw
0.078,0.31,1.04,0.007,0.006,0.0429,0.0032,0.0048,170.0,21.0,1.0,200.0,0.0,0.0,1.27761,2.56652,-0.201468,0.044,-0.170374,0.0005,0.0005,0.0005,0.00094602,0.00400258,0.0101954,455.545,539.314,29.8582,74.832,-63.0,100.0,278.59,104.815,39.873,-52.752,0.0,1,0,Evans-V/Mn-1991-B440awch
0.077,0.32,1.05,0.008,0.006,0.04,0.0034,0.0072,170.0,21.0,1.0,200.0,580.0,2.0,0.129081,5.40174,0.551864,0.085,0.163635,0.0005,0.0005,0.0005,0.00928474,-0.00453529,0.00371807,538.0,609.0,25.4,75.0,-40.0,100.0,290.577,-0.74752,14.8044,94.5227,0.0,1,0,Evans-V/Mn-1991-B850ht
0.077,0.26,1.36,0.007,0.007,0.041,0.0029,0.0079,170.0,21.0,1.0,200.0,250.0,14.0,-0.0870314,0.65093,0.989501,0.0425,0.137105,0.0005,0.0005,0.0005,0.00145085,0.00625312,0.0055751,536.0,590.0,24.4,78.1,-8.64472,156.536,171.243,37.6193,4.13564,64.8231,0.0,1,0,Evans-V/Mn-1991-C425aw
0.076,0.26,1.36,0.007,0.006,0.0407,0.0029,0.0083,170.0,21.0,1.0,200.0,0.0,0.0,1.67303,2.64519,0.617614,0.1005,0.123657,0.0005,0.0005,0.0005,-0.00135003,-0.0011532,-0.00332707,356.273,415.211,40.9246,82.4611,-55.0,100.0,242.365,12.0,3.0,85.0,0.0,1,0,Evans-V/Mn-1991-C1005awch
0.077,0.26,1.73,0.007,0.008,0.0423,0.0027,0.0072,170.0,21.0,1.0,200.0,580.0,2.0,0.453075,1.34968,-0.0380283,0.0235,0.0753179,0.0005,0.0005,0.0005,-0.0173663,-0.0217777,0.000953068,523.0,602.0,25.6,75.0,-59.0,100.0,185.294,36.1963,-49.9115,118.499,0.0,1,0,Evans-V/Mn-1991-D235ht
0.08,0.26,1.74,0.007,0.008,0.0411,0.0025,0.009,170.0,21.0,1.0,200.0,250.0,14.0,0.252217,5.20151,0.910643,0.083,0.219115,0.0005,0.0005,0.0005,0.0151743,0.0195197,-0.00910312,639.0,681.0,19.6,71.9,-49.9479,43.0048,261.009,-18.4284,0.234865,107.561,0.0,1,0,Evans-V/Mn-1991-D830aw
0.073,0.34,0.64,0.007,0.005,0.0431,0.0041,0.008,170.0,21.0,1.0,200.0,0.0,0.0,-0.0759636,-5.66025,-0.446549,0.0003,-0.234548,0.0005,0.0005,0.012,0.0118125,0.00722281,0.00895538,436.121,471.504,34.6429,84.5666,-33.0,100.0,240.767,27.0,60.0,13.0,0.0,1,0,Evans-Nb/Mn-1991-A120awch
0.07,0.33,0.64,0.007,0.004,0.0413,0.0042,0.0085,170.0,21.0,1.0,200.0,580.0,2.0,1.46542,4.36265,0.392435,0.0007,-0.170092,0.0005,0.0005,0.045,0.00609335,0.0101914,-0.00237513,484.0,576.0,23.0,74.9,-4.0,100.0,241.945,54.1167,43.4723,25.1627,0.0,1,0,Evans-Nb/Mn-1991-A450ht
0.074,0.34,1.0,0.007,0.006,0.0424,0.0037,0.0086,170.0,21.0,1.0,200.0,250.0,14.0,0.449559,-0.0909959,0.650318,0.0005,0.339912,0.0005,0.0005,0.0255,-0.00307678,-0.00298114,-0.00707441,513.0,594.0,28.0,76.0,-33.1191,155.102,222.396,18.6398,13.5772,72.7556,0.0,1,0,Evans-Nb/Mn-1991-B255aw
0.077,0.31,1.33,0.007,0.005,0.0419,0.0038,0.008,170.0,21.0,1.0,200.0,0.0,0.0,1.57797,-0.569683,0.340938,0.0004,0.303017,0.0005,0.0005,0.0006,0.00328875,-0.00482429,0.0074503,503.489,585.058,28.4607,76.309,-67.0,100.0,243.31,23.0,7.0,70.0,0.0,1,0,Evans-Nb/Mn-1991-C<6awch
0.076,0.3,1.36,0.008,0.006,0.037,0.0033,0.0084,170.0,21.0,1.0,200.0,580.0,2.0,0.200339,4.97063,1.28959,0.0004,0.0216052,0.0005,0.0005,0.0235,-0.00375663,0.000944381,-0.00481583,539.0,607.0,25.0,76.0,-41.0,100.0,216.163,-5.87623,103.955,-6.55987,0.0,1,0,Evans-Nb/Mn-1991-C235ht
0.077,0.32,1.77,0.007,0.006,0.0418,0.0031,0.0089,170.0,21.0,1.0,200.0,250.0,14.0,-0.0805125,-1.33299,-0.391146,0.0004,0.0910535,0.0005,0.0005,0.0125,-0.000297301,-0.00532892,0.00417191,540.0,614.0,22.0,75.9,-17.6886,147.965,246.863,-7.29512,28.1911,98.3715,0.0,1,0,Evans-Nb/Mn-1991-D125aw
0.077,0.29,1.77,0.008,0.009,0.0432,0.0031,0.0097,170.0,21.0,1.0,200.0,0.0,0.0,0.476905,4.57867,2.06229,0.0004,-0.0959554,0.0005,0.0005,0.045,0.0127144,0.00705409,-0.00607245,482.678,565.421,26.1788,77.6844,-26.0,100.0,261.401,-23.8898,16.5705,126.606,0.0,1,0,Evans-Nb/Mn-1991-D450awch
0.049,0.34,1.39,0.006,0.007,0.0339,0.0042,0.0065,180.0,34.0,1.0,200.0,250.0,14.0,-0.13664,-1.27089,0.394123,-0.189603,0.424348,-0.012273,-0.000903377,-0.0108148,0.0103622,0.00757203,0.00878778,430.0,505.0,31.2,82.3,-30.7777,146.894,243.957,17.4824,70.7767,11.8419,0.0,1,0,Evans-FelowH-1991-UF.15b
0.043,0.3,0.69,0.006,0.007,0.0422,0.0042,0.008,170.0,21.0,1.0,200.0,580.0,2.0,0.499471,-0.611831,-0.217694,-0.0450402,0.394109,-0.000241209,0.000109566,-0.0100495,0.0127169,0.0109875,-0.00651992,373.0,448.0,34.4,83.0,-130.514,74.848,233.23,25.6147,34.9614,25.0564,0.0,1,0,Evans-StressRelief-1991-0.045A
0.042,0.31,0.98,0.006,0.007,0.0422,0.0042,0.008,170.0,21.0,1.0,200.0,580.0,2.0,-0.285792,4.7533,0.741189,0.194425,0.299053,-0.00266191,0.00138294,0.0115773,0.00251586,-0.00287559,0.000848072,392.0,476.0,34.4,80.6,-8.6585,43.0264,221.989,40.1988,36.379,15.2458,0.0,1,0,Evans-StressRelief-1991-0.045B
0.045,0.31,1.39,0.005,0.007,0.0422,0.0042,0.008,170.0,21.0,1.0,200.0,580.0,2.0,0.443046,0.843593,-0.0422886,0.0966899,0.421563,0.00276018,0.00103852,0.0559544,0.00392746,0.00347147,0.00933627,414.0,502.0,31.0,80.6,-74.0094,20.1084,215.789,22.3011,38.9944,40.321,0.0,1,0,Evans-StressRelief-1991-0.045C
0.045,0.29,1.83,0.005,0.008,0.0422,0.0042,0.008,170.0,21.0,1.0,200.0,580.0,2.0,0.283285,2.48367,0.774869,0.180887,0.267427,0.00347945,0.00165857,-0.01019,0.00893879,0.00573124,0.004542,444.0,525.0,29.8,79.9,-30.3011,179.258,169.287,60.0569,-7.0595,44.4688,0.0,1,0,Evans-StressRelief-1991-0.045D
0.058,0.33,0.63,0.007,0.007,0.0422,0.0042,0.008,170.0,21.0,1.0,200.0,580.0,2.0,1.94669,-1.93453,-0.911378,-0.0519834,0.680227,0.00466986,0.000751029,-0.00287618,0.00857683,0.00984679,0.0101102,386.0,465.0,33.4,78.8,-4.11288,96.5757,156.497,-12.5117,20.2386,84.7918,0.0,1,0,Evans-StressRelief-1991-0.065A
0.065,0.34,0.97,0.007,0.008,0.0422,0.0042,0.008,170.0,21.0,1.0,200.0,580.0,2.0,1.36152,1.5101,0.948569,-0.01339,0.082277,0.010677,0.000146351,0.00424585,-0.000984691,0.00932205,-0.00953704,573.724,662.053,28.0701,69.9368,-70.0,15.0,240.925,29.9033,60.0158,13.7411,0.0,1,0,Evans-StressRelief-1991-0.065Bch-70
0.066,0.35,1.36,0.007,0.008,0.0422,0.0042,0.008,170.0,21.0,1.0,200.0,580.0,2.0,0.291614,-5.37298,-0.686601,-0.0715306,0.0812666,0.0366844,0.000903726,-0.00927,0.00776008,0.0131779,-0.00131355,372.157,412.564,33.6269,95.2547,-70.0,30.0,230.712,15.9619,62.8627,31.2771,0.0,1,0,Evans-StressRelief-1991-0.065Cch-70
0.074,0.36,1.8,0.008,0.008,0.0422,0.0042,0.008,170.0,21.0,1.0,200.0,580.0,2.0,-0.198626,-1.03761,0.709784,-0.0238616,0.0922574,0.0173925,0.000638552,0.00741777,0.00783438,0.000232128,0.00727723,386.994,541.783,30.3846,76.5828,-70.0,30.0,156.617,63.25,17.0692,26.9673,0.0,1,0,Evans-StressRelief-1991-0.065Dch-70
0.089,0.35,0.68,0.008,0.008,0.0422,0.0042,0.008,170.0,21.0,1.0,200.0,580.0,2.0,-0.391112,-2.16525,0.578788,-0.0158965,0.0500554,0.0267526,0.000861018,0.0192926,-0.00799299,-0.00352702,-0.000985131,526.114,638.397,27.3825,64.5395,-70.0,23.0,237.747,25.1947,47.844,14.6641,0.0,1,0,Evans-StressRelief-1991-0.095Ach-70
0.095,0.36,1.05,0.007,0.008,0.0422,0.0042,0.008,170.0,21.0,1.0,200.0,580.0,2.0,1.12075,0.50304,0.598904,-0.122507,-0.287365,-0.00569385,0.00126211,0.0298601,0.00160481,-0.0118866,0.00242953,541.844,591.647,24.0557,79.3506,-70.0,11.0,228.153,21.3769,42.9038,47.6326,0.0,1,0,Evans-StressRelief-1991-0.095Bch-70
0.088,0.34,1.33,0.008,0.007,0.0422,0.0042,0.008,170.0,21.0,1.0,200.0,580.0,2.0,0.643895,3.91426,-0.0150735,0.158534,0.059426,0.020194,0.00168108,0.0265842,0.000328743,0.0115118,0.00411594,469.329,548.588,25.5123,78.2764,-70.0,72.0,220.105,37.8626,9.40932,50.0994,0.0,1,0,Evans-StressRelief-1991-0.095Cch-70
0.089,0.33,1.69,0.007,0.008,0.0422,0.0042,0.008,170.0,21.0,1.0,200.0,580.0,2.0,0.0125606,-3.50343,-0.119608,0.102281,0.223555,0.00104437,0.00022382,0.00277416,-0.00397686,0.000880689,0.0123747,484.879,557.241,25.9351,83.3871,-70.0,53.0,267.401,50.7557,-3.64371,53.1587,0.0,1,0,Evans-StressRelief-1991-0.095Dch-70
0.147,0.36,1.02,0.007,0.007,0.0422,0.0042,0.008,170.0,21.0,1.0,200.0,580.0,2.0,-0.504735,-0.0114017,0.820392,-0.158241,-0.136904,0.00279924,-0.000376287,-0.036468,0.00197859,0.00526238,0.00351256,391.522,548.521,28.5122,71.7511,-70.0,17.0,189.991,19.2227,61.3543,17.5161,0.0,1,0,Evans-StressRelief-1991-0.145Bch-70
0.147,0.35,1.38,0.007,0.007,0.0422,0.0042,0.008,170.0,21.0,1.0,200.0,580.0,2.0,0.435422,1.49284,0.441796,0.112333,0.226743,-0.00755102,0.000872369,0.00572499,0.0097167,0.014251,0.00770227,438.577,527.998,30.6805,77.3209,-70.0,38.0,236.02,28.0572,-18.5203,106.251,0.0,1,0,Evans-StressRelief-1991-0.145Cch-70
0.145,0.35,1.76,0.006,0.007,0.0422,0.0042,0.008,170.0,21.0,1.0,200.0,580.0,2.0,-0.546802,3.48053,0.509683,0.0313134,0.950838,-0.00893371,0.000568148,-0.0102096,0.00637333,0.0162806,0.0159642,227.763,354.26,36.3927,80.3957,-70.0,27.0,177.408,42.7039,6.25265,66.1096,0.0,1,0,Evans-StressRelief-1991-0.145Dch-70
0.074,0.33,1.45,0.005,0.005,0.0408,0.0006,0.009,170.0,21.0,1.0,200.0,0.0,0.0,0.488164,-0.584962,-0.0491546,0.0128616,0.399053,0.0306546,-0.000252843,-0.0354939,0.00558402,0.00252526,0.0143699,635.281,685.4,19.0173,64.2803,-60.0,28.0,299.813,32.0214,34.6131,28.9631,0.0,1,4,Evans-Ti/CMn-1992-P0ch1
0.071,0.36,1.46,0.004,0.006,0.04,0.0022,0.0085,170.0,21.0,1.0,200.0,250.0,14.0,-1.0285,-0.399664,0.182694,-0.0566808,0.240737,0.0217151,0.00029693,-0.00975416,0.00203079,0.0107925,0.00962039,497.0,563.0,30.6,77.0,-2.44498,194.006,121.887,5.81605,-43.9806,121.887,0.0,1,4,Evans-Ti/CMn-1992-P0.2
0.061,0.33,1.36,0.005,0.006,0.0419,0.0028,0.0081,170.0,21.0,1.0,200.0,0.0,0.0,-0.715095,0.60708,0.308736,-0.258026,0.306004,0.00745209,-0.000642995,-0.0538506,0.0037998,-0.00243521,0.00581057,131.721,275.413,36.5916,92.1847,7.76703,85.635,178.266,23.0,8.0,69.0,0.0,1,4,Evans-Ti/CMn-1992-Q0.4mic
0.068,0.32,1.38,0.004,0.005,0.0376,0.0077,0.0074,170.0,21.0,1.0,200.0,0.0,0.0,0.537133,-1.38434,-0.0313287,0.0985745,-0.626741,-0.00353385,0.000442258,0.00676486,0.000757606,0.00450519,0.00656107,826.173,805.427,15.6922,62.7779,-51.0,100.0,213.469,-35.0647,-7.32228,144.175,0.0,1,4,Evans-Ti/CMn-1992-Q1.2ch2
0.065,0.39,1.53,0.005,0.006,0.0351,0.014,0.0093,170.0,21.0,1.0,200.0,0.0,0.0,2.64195,3.5204,-0.00439212,0.0301018,-0.203372,0.0205766,0.000544835,-0.00161006,0.00385858,0.00609908,0.0037604,752.342,818.299,23.6439,59.0947,-64.0,28.0,232.498,-1.0538,39.1632,43.0046,0.0,1,4,Evans-Ti/CMn-1992-R2.4ch1
0.075,0.29,1.75,0.006,0.005,0.0272,0.0255,0.0096,170.0,21.0,1.0,200.0,250.0,14.0,0.655935,-6.19108,-0.210983,-0.19189,0.2934,-0.0018376,-0.000506121,-0.00324136,0.0180428,0.0197476,-0.00570949,588.0,654.0,26.4,72.0,-84.2226,60.8777,269.407,-8.39218,14.7796,79.3819,0.0,1,4,Evans-Ti/CMn-1992-S4.8
0.074,0.35,0.65,0.005,0.004,0.0426,0.0036,0.0073,170.0,21.0,1.0,200.0,250.0,14.0,-0.215259,0.444602,0.592342,0.0005,0.12063,0.0005,0.0005,0.0005,-0.000306456,-0.00639229,0.00507114,402.0,494.0,33.3,77.5,-99.8495,186.823,152.229,36.7903,12.6576,40.6795,0.0,1,0,Evans-Ti/Mn-1992-A36aw
0.076,0.38,0.67,0.009,0.007,0.0362,0.016,0.007,170.0,21.0,1.0,200.0,0.0,0.0,-0.171346,5.39928,0.659361,0.0005,0.0845105,0.0005,0.0005,0.0005,-0.0146352,-0.0168371,0.00116828,597.222,686.483,25.1105,67.2258,-36.0,100.0,225.974,19.0,44.0,35.0,0.0,1,0,Evans-Ti/Mn-1992-A160awch
0.077,0.3,1.0,0.008,0.007,0.0464,0.0007,0.0083,170.0,21.0,1.0,200.0,580.0,2.0,0.766881,1.26593,-0.453703,0.0005,-0.152756,0.0005,0.0005,0.0005,-0.00167981,0.00287178,0.00374282,372.0,480.0,30.5,78.9,-66.0,100.0,189.204,45.4171,18.7373,39.086,0.0,1,0,Evans-Ti/Mn-1992-B7ht
0.075,0.35,1.05,0.008,0.007,0.0361,0.014,0.0082,170.0,21.0,1.0,200.0,250.0,14.0,0.955498,-0.712754,0.0475468,0.0005,-0.301433,0.0005,0.0005,0.0005,0.00677306,0.0133956,0.0133296,434.0,517.0,30.8,78.9,-58.6401,112.055,157.534,-14.6344,93.5831,12.3721,0.0,1,0,Evans-Ti/Mn-1992-B140aw
0.075,0.3,1.31,0.008,0.006,0.0441,0.0005,0.0081,170.0,21.0,1.0,200.0,0.0,0.0,0.745401,6.10879,1.45513,0.0005,0.265027,0.0005,0.0005,0.0005,0.00570625,-0.00486427,0.00010284,327.765,417.974,41.7499,84.2924,-29.0,100.0,206.827,-17.3804,37.0197,74.4634,0.0,1,0,Evans-Ti/Mn-1992-C5aw
0.073,0.3,1.32,0.008,0.007,0.0401,0.0075,0.0077,170.0,21.0,1.0,200.0,580.0,2.0,0.224469,5.24763,0.290196,0.0005,0.426389,0.0005,0.0005,0.0005,0.00569704,0.00320293,0.00781001,419.0,507.0,33.4,80.7,-61.0,100.0,282.239,-10.9018,7.57537,114.947,0.0,1,0,Evans-Ti/Mn-1992-C75ht
0.077,0.28,1.79,0.007,0.006,0.0439,0.0007,0.0082,170.0,21.0,1.0,200.0,250.0,14.0,0.969464,3.33187,1.46721,0.0005,0.275667,0.0005,0.0005,0.0005,0.0118177,0.0131619,-0.00275972,458.0,568.0,28.6,76.0,-20.5127,94.7687,209.3,30.1038,38.5096,19.9219,0.0,1,0,Evans-Ti/Mn-1992-D7aw
0.077,0.29,1.76,0.007,0.007,0.0396,0.0105,0.0081,170.0,21.0,1.0,200.0,0.0,0.0,0.450942,-0.0181256,0.0406249,0.0005,-0.318931,0.0005,0.0005,0.0005,0.0181169,0.0134972,0.00677728,515.893,607.157,27.3108,72.6107,-53.0,100.0,279.557,-17.4128,80.9427,30.0018,0.0,1,0,Evans-Ti/Mn-1992-D105aw
0.079,0.37,1.82,0.006,0.007,0.0324,0.0255,0.0081,170.0,21.0,1.0,200.0,580.0,2.0,0.0532329,0.68318,0.974074,0.0005,-0.39404,0.0005,0.0005,0.0005,0.0122421,0.00632146,-0.00202575,474.0,575.0,29.4,78.0,-61.0,100.0,216.121,92.6928,-46.8988,62.7275,0.0,1,0,Evans-Ti/Mn-1992-D255ht
0.068,0.28,1.4,0.01,0.008,0.0409,0.0031,0.0148,170.0,21.0,1.0,200.0,0.0,0.0,1.74151,0.804152,0.267296,-0.0213772,0.344522,0.00174225,0.0012854,0.0295862,0.00444724,0.00238993,0.0156111,482.0,545.0,28.0,78.9,-89.4753,-6.15844,174.355,38.5465,34.1556,34.9775,0.0,1,0,KocakPREv-TiN-1994-W1a
0.07,0.28,1.45,0.009,0.009,0.0315,0.012,0.0239,170.0,21.0,1.0,200.0,0.0,0.0,0.585731,0.905581,1.39456,-0.0645975,-0.151813,0.0199787,0.000381592,-0.0379268,-0.00228487,-0.0184638,0.00805905,523.0,599.0,29.2,77.0,-87.9878,92.5721,326.193,12.9603,-29.84,113.497,0.0,1,0,KocakPREv-TiN-1994-W2c
0.049,0.34,1.42,0.005,0.013,0.041,0.0042,0.009,170.0,21.0,1.0,150.0,500.0,2.0,0.374498,10.1612,1.81422,0.1598,-0.019765,0.0223953,0.00149491,0.0642484,0.0146557,0.0128486,0.00353015,436.0,529.0,31.6,78.8,-50.0,100.0,178.558,12.5158,12.914,69.2481,0.0,1,0,Evans-Mn-1977-Cht
0.1,0.34,1.42,0.009,0.028,0.0345,0.0042,0.0087,170.0,24.0,2.1,107.0,620.0,1.0,1.92,0.05,0.35,0.01,0.05,0.0627709,0.000294028,-0.00741536,0.0114704,0.0146616,-0.000676743,765.0,858.0,20.6,55.5553,-14.0,50.0,256.51,-6.52728,52.3179,54.5928,0.0,1,0,SurianEtAl-C-1991-0.10htCh
0.05,0.46,0.96,0.01,0.017,0.0443,0.0042,0.0084,170.0,21.0,1.8,100.0,250.0,16.0,0.03,2.39661,0.01,-0.31499,0.02,0.0237864,0.000614666,0.00867261,0.0146339,0.00968119,0.00517823,449.0,542.0,24.4611,79.6468,-39.5062,153.785,138.678,47.9953,82.6847,-27.3935,0.0,1,0,RaiterGonzal-Mo-1989-1aw
0.06,0.44,1.6,0.01,0.018,0.0395,0.0042,0.0102,170.0,21.0,1.8,100.0,620.0,1.0,0.03,-1.95909,0.01,-0.182164,0.02,0.00668996,-0.00027298,-0.00171845,0.00792598,-0.0086234,0.0228678,494.0,556.0,28.3288,83.6399,-128.204,-45.1046,215.578,23.9263,72.0154,-0.949205,0.0,1,0,RaiterGonzal-Mo-1989-4ht
0.06,0.39,1.95,0.01,0.021,0.0395,0.0042,0.0125,170.0,21.0,1.8,100.0,250.0,16.0,0.02,3.88076,0.34,-0.0934325,0.02,-0.00335225,-8.3726e-05,-0.0241169,0.00678623,-0.0102982,-0.00689815,677.0,741.0,26.5438,70.158,-6.59145,53.134,265.841,56.5031,22.4317,25.9151,0.0,1,0,RaiterGonzal-Mo-1989-8aw
0.03,0.45,0.78,0.013,0.01,0.0336,0.014,0.0095,180.0,23.0,1.0,250.0,0.0,0.0,0.309132,1.87829,0.411794,0.0514636,-0.267509,0.009,0.00047963,0.00488178,0.006,0.001,0.002,483.08,590.74,24.2456,71.8898,-20.0,48.0,223.03,-5.65927,54.5729,42.7859,0.0,1,0,SvenGret-1990-1Ch-2
0.032,0.45,1.27,0.008,0.01,0.0321,0.013,0.0094,180.0,23.0,1.0,250.0,0.0,0.0,-0.213701,-1.01969,0.20551,-0.0522988,0.439598,0.009,0.000111804,-0.0302931,0.006,0.001,0.003,367.834,474.825,32.9956,80.2746,0.0,152.0,226.575,22.0852,93.2715,-24.9646,0.0,1,0,SvenGret-1990-2Ch0
0.031,0.42,1.71,0.004,0.01,0.0297,0.011,0.0109,180.0,23.0,1.0,250.0,0.0,0.0,-0.180679,3.44522,0.551648,-0.100457,-0.161107,0.008,-0.000527326,-0.000918313,0.006,0.001,0.003,689.534,784.786,17.3741,61.0347,20.0,195.0,217.153,14.1781,70.6571,-4.59459,0.0,1,0,SvenGret-1990-3Ch223
0.059,0.34,0.77,0.01,0.01,0.0306,0.011,0.0066,180.0,23.0,1.0,250.0,0.0,0.0,0.794767,7.32488,0.65609,0.116083,0.088439,0.007,0.0013415,0.0538806,0.003,0.001,0.001,400.0,463.816,33.4314,84.8974,-35.0457,55.899,139.457,-9.27344,14.4066,115.044,0.0,1,0,SvenGret-1990-5
0.059,0.33,1.09,0.008,0.01,0.031,0.01,0.0064,180.0,23.0,1.0,250.0,0.0,0.0,-0.628356,7.17171,1.29283,0.155784,0.577156,0.007,0.000359925,-0.0286934,0.005,0.001,0.005,664.074,701.367,22.8976,69.4006,-60.0,12.0,220.941,14.0848,18.5095,57.4434,0.0,1,0,SvenGret-1990-6Ch-6
0.059,0.3,1.44,0.006,0.01,0.0305,0.009,0.0065,180.0,23.0,1.0,250.0,0.0,0.0,0.135135,-0.730684,0.294514,-0.0553191,-0.135058,0.007,0.00204039,0.04012,0.004,0.001,0.005,335.76,446.408,33.6726,78.8857,-40.0,129.0,176.174,20.6001,2.44863,74.4722,0.0,1,0,SvenGret-1990-7Ch-4
0.065,0.33,1.83,0.003,0.01,0.0291,0.009,0.0076,180.0,23.0,1.0,250.0,0.0,0.0,0.493593,0.063493,1.04379,-0.0159879,0.0350851,0.007,0.0017809,-0.0304487,0.004,0.001,0.005,434.678,528.082,29.4971,74.3745,-20.0,150.0,211.474,78.7827,-2.95905,26.0404,0.0,1,0,SvenGret-1990-8Ch-2
0.09,0.41,0.78,0.013,0.01,0.0421,0.014,0.0036,180.0,23.0,1.0,250.0,0.0,0.0,0.10364,-0.675058,-0.0435554,0.221044,-0.164209,0.003,0.00193239,-0.0149506,0.005,0.004,0.004,384.014,575.518,29.2246,66.2664,0.0,148.0,287.399,60.415,-29.6266,73.4888,0.0,1,0,SvenGret-1990-9Ch0
0.089,0.35,1.18,0.011,0.01,0.0404,0.012,0.0073,180.0,23.0,1.0,250.0,0.0,0.0,0.810643,1.46457,1.46714,-0.0369969,0.219799,0.008,0.000646148,-0.0068403,0.005,0.003,0.003,500.593,582.661,28.4595,77.606,20.0,188.0,221.945,40.2237,35.9936,32.0022,0.0,1,0,SvenGret-1990-10Ch2
0.098,0.39,2.25,0.008,0.014,0.033,0.013,0.0088,180.0,23.0,1.0,250.0,0.0,0.0,1.00864,2.34329,2.46492,0.000159926,0.348196,0.003,-0.000298834,-0.0107928,0.006,0.005,0.005,541.0,535.668,29.3147,88.6263,-31.0622,78.3505,157.103,34.4949,13.4287,51.9734,0.0,1,0,SvenGret-1990-12
0.12,0.43,0.86,0.011,0.014,0.0329,0.015,0.0054,180.0,23.0,1.0,250.0,0.0,0.0,-0.672487,1.94906,0.849348,0.09164,-0.00809865,0.005,0.000868037,0.00981399,0.005,0.003,0.003,404.688,560.979,35.5577,71.8767,-60.0,86.0,182.329,64.3072,34.5181,-6.87647,0.0,1,0,SvenGret-1990-13Ch-6
0.12,0.44,1.35,0.01,0.014,0.0326,0.015,0.0055,180.0,23.0,1.0,250.0,0.0,0.0,0.138194,-1.78488,-0.336843,0.0556062,-0.020493,0.003,0.000750625,0.00685523,0.006,0.005,0.006,569.601,681.923,30.9514,65.6494,-40.0,138.0,154.75,-18.4122,35.965,74.8012,0.0,1,0,SvenGret-1990-14Ch-4
0.13,0.37,1.83,0.01,0.011,0.0318,0.013,0.0063,180.0,23.0,1.0,250.0,0.0,0.0,-0.00691297,2.95362,1.0249,-0.0771423,0.759509,0.003,0.000430721,0.0312993,0.006,0.005,0.005,486.683,630.121,15.6368,64.0005,-20.0,136.0,263.63,20.7362,35.6691,41.56,0.0,1,0,SvenGret-1990-15Ch-2
0.11,0.36,2.18,0.008,0.011,0.0342,0.012,0.0074,180.0,23.0,1.0,250.0,0.0,0.0,0.575891,4.14377,0.811572,0.0687505,-0.265037,0.003,0.000717154,-0.0270265,0.006,0.007,0.008,313.43,380.632,33.0363,89.0025,0.0,129.0,185.881,69.6495,-19.2915,36.3924,0.0,1,0,SvenGret-1990-16Ch0
0.055,0.34,0.81,0.01,0.009,0.0466,0.002,0.0059,285.0,32.0,2.9,200.0,200.0,14.0,0.02,0.05,1.31703,0.011,-0.472464,0.004,0.0001,0.001,-0.000296646,0.0136778,-0.00789552,385,491.0,26.6208,78.1642,3.80995,154.674,150.805,5.26162,77.922,15.5281,0.0,1,2,PakSven-1990-11
0.071,0.36,1.09,0.006,0.009,0.0418,0.0041,0.0071,170.0,21.0,1.0,200.0,0.0,0.0,-0.236999,0.41,-0.151767,0.0422387,0.162464,-0.0198755,-0.000673755,0.0234634,0.00565951,0.000972569,0.00707543,578.502,662.02,22.858,68.3279,-61.0,100.0,108.456,29.8018,1.91828,77.9823,0.0,1,0,JorgeEtAl-1993-Baw
0.07,0.34,1.06,0.006,0.008,0.0463,0.0041,0.0085,170.0,21.0,1.0,200.0,580.0,2.0,1.68268,1.57,-0.153482,0.180321,0.382802,-0.0139362,0.00119002,0.0147534,-0.0098497,-0.00888992,0.00388776,513.532,600.993,24.142,80.0991,-48.0,100.0,210.635,19.0381,67.477,14.6682,0.0,1,0,JorgeEtAl-1993-Eht
0.05,0.27,0.75,0.006,0.01,0.019,0.007,0.008,680.0,34.0,3.3,200.0,0.0,0.0,0.75,0.5,0.23,0.0448232,1.05,0.018,0.0021,0.032,0.00355483,0.02426,0.000561864,576.0,582.444,30.3069,77.7845,10.4217,200.99,227.0,-12.4356,79.1395,30.6461,0.0,1,1,Hunt&-Di-1994-2
0.05,0.35,0.79,0.007,0.011,0.021,0.004,0.008,640.0,34.0,2.0,200.0,0.0,0.0,1.39,0.56,0.28,0.12014,0.96,0.02,0.0015,0.033,0.00280123,-0.00350306,0.0148841,678.0,734.533,18.154,69.8735,-94.4679,17.9159,259.0,12.8073,22.9469,65.0588,0.0,1,1,Hunt&-Di-1994-9
0.05,0.4,1.12,0.006,0.014,0.021,0.006,0.007,660.0,34.0,5.3,200.0,0.0,0.0,1.9,0.51,0.37,-0.015288,0.55,0.014,0.0011,0.02,0.0187809,0.0186402,-0.0101356,543.0,655.996,26.0745,63.3283,23.9125,252.836,229.0,62.2423,26.9667,12.4713,0.0,1,1,Hunt&-Di-1994-16
0.08,0.62,1.83,0.013,0.014,0.0185,0.023,0.0067,700.0,32.0,4.8,200.0,0.0,0.0,1.51,0.05,0.01,0.01,0.03,0.02,0.0007,-0.00783973,-0.00413691,-0.00269354,0.0173813,515.0,737.0,26.0,48.0,0.0,35.0,193.648,75.1495,-38.0437,64.3621,0.0,1,1,Kluket-CuMnB-1994-7
0.07,0.61,1.07,0.025,0.026,0.0422,0.0064,0.0094,170.0,21.0,2.8,250.0,600.0,2.1,0.0,0.0,0.0,0.014,0.0,0.007,0.00142488,0.004,0.0,-0.00309201,0.0064,456.2,555.2,24.5,72.0,-63.3531,79.4709,213.0,58.5778,-24.8969,69.0502,0.0,1,0,Cunh-1982-8018Ght5
0.06,0.53,1.15,0.013,0.015,0.0422,0.0,0.01,170.0,21.0,1.8,150.0,0.0,0.0,0.0,0.02,0.0,0.0,0.0,0.0057,-0.000653795,0.0,0.0,-0.0091324,0.008,553.3,626.9,25.0,70.4,-28.3591,211.104,194.0,-5.48402,-20.3625,117.216,0.0,1,0,Cunh-1982-8018Gaw9
0.08,0.49,0.9,0.014,0.029,0.0422,0.005,0.017,170.0,21.0,1.9,150.0,600.0,2.1,0.0,0.05,0.0,0.0,0.0,0.0108,-7.4275e-05,0.0,0.0,0.00372255,0.0,290.053,333.4,34.5113,88.8645,-28.6527,104.023,173.739,-7.59016,44.5869,57.7637,0.0,1,0,Cunh-1982-7018ht12
0.12,0.22,1.24,0.036,0.019,0.0422,0.0,0.011,170.0,21.0,1.7,200.0,0.0,0.0,0.0,0.0,0.0,0.0,0.18,0.011,0.000171667,0.02,0.015,0.00985184,0.0,483.6,586.6,32.0,70.5,-66.7454,43.5847,193.0,31.2356,15.2415,53.3054,0.0,1,1,Cunh-1982-16aw
0.1,0.31,1.37,0.02,0.028,0.0336,0.01,0.0099,550.0,28.0,3.6,100.0,0.0,0.0,0.08,0.06,0.02,0.01,0.15,0.013,0.001,0.03,0.02,0.01,0.01,498.0,621.0,16.0,70.0,16.0,70.0,178.112,-1.1619,18.9713,80.3671,0.0,1,1,Wats-1981-EWO
0.044,0.32,0.62,0.007,0.007,0.0422,0.0042,0.008,170.0,21.0,0.6,200.0,250.0,14.0,-1.60871,0.756897,1.35333,0.0811197,0.251624,0.0166962,0.00172292,0.00336565,0.00499534,0.014526,-0.00801792,445.0,496.0,31.0,79.7,-90.1994,79.313,292.427,60.8887,21.3236,25.9803,0.0,1,0,EvHtIp1979-0.6A
0.055,0.35,1.93,0.007,0.011,0.0422,0.0042,0.008,170.0,21.0,0.6,200.0,0.0,0.0,1.58639,-0.261588,-0.430744,0.0314732,0.14288,0.00966027,0.00119503,0.00101211,-0.00569363,0.00264321,0.00607409,812.722,881.052,15.8847,61.1876,-28.0,100.0,255.751,16.4344,48.0213,61.0857,0.0,1,0,EvHtIp1979-0.6DC
0.051,0.32,1.8,0.006,0.012,0.0422,0.0042,0.008,170.0,21.0,1.0,200.0,250.0,14.0,0.0658564,0.887446,0.279331,0.0759175,-0.107579,0.0303428,0.000892667,0.0189533,0.00752108,0.00575255,0.00726861,507.0,587.0,29.2,76.9,-36.6822,81.8044,191.61,35.2791,-9.59947,83.6703,0.0,1,0,EvHtIp1979-1.0D
0.042,0.28,1.37,0.007,0.012,0.0422,0.0042,0.008,170.0,21.0,2.2,200.0,0.0,0.0,0.0671281,-1.96576,0.742356,0.0422817,0.161673,0.0160903,0.000797203,0.0032571,0.0159395,0.0138553,0.0161608,400.472,469.018,27.1161,77.5416,-57.0,100.0,137.027,6.53089,42.1803,52.2825,0.0,1,0,EvHtIp1979-2.2CC
0.043,0.24,1.37,0.008,0.013,0.0422,0.0042,0.008,170.0,21.0,4.3,200.0,250.0,14.0,0.469983,7.43324,0.516337,0.208105,0.273996,-0.00836699,0.00129154,0.0127144,-0.00699843,0.00432654,0.00438568,405.0,500.0,31.8,80.6,-106.272,2.93541,192.633,39.9086,13.7362,49.4639,0.0,1,0,EvHtIp1979-4.3C
0.049,0.31,1.77,0.007,0.014,0.0422,0.0042,0.008,170.0,21.0,1.0,150.0,0.0,0.0,2.13636,2.82833,1.34208,-0.00740322,0.657139,0.0191779,5.44668e-05,-0.0103122,0.0100739,0.0173722,-0.00012308,525.0,600.0,29.6,77.0,-37.0,100.0,215.161,24.9384,48.3648,27.7747,0.0,1,0,Evans-intpss-1978-D150
0.047,0.27,1.32,0.007,0.012,0.0422,0.0042,0.008,170.0,21.0,1.0,300.0,0.0,0.0,0.656531,1.07688,-0.197912,-0.0470369,-0.420916,0.00868769,-0.000383367,0.0208245,-0.00919795,-0.00372034,0.00473191,431.0,513.0,33.4,78.8,-53.0,100.0,193.803,22.0178,-4.58406,83.8464,0.0,1,0,Evans-intpss-1978-C300
0.14,0.33,1.67,0.02,0.026,0.0422,0.008,0.008,650.0,33.0,3.3,300.0,250.0,2.0,0.07,0.066,0.188,0.098,0.01,0.016,0.000564348,0.008,0.007,0.0012142,0.010417,784.0,870.837,17.0,64.0,100.301,190.88,270.612,48.1954,38.9673,9.49391,0.0,1,1,Gar&K-1975-25mm-4ht
0.1,0.41,1.83,0.009,0.014,0.0422,0.007,0.008,650.0,33.0,3.3,300.0,0.0,0.0,0.095,0.078,0.3,0.041,0.16,0.019,-0.00114574,0.005,0.0011,-0.00358064,0.00516764,610.0,708.547,35.0,68.0,-94.051,69.2511,220.549,11.3119,0.62586,72.0556,0.0,1,1,Gar&K-1975-25mm-12aw
0.08,0.29,1.33,0.01,0.017,0.045,0.005,0.0095,650.0,33.0,3.3,300.0,600.0,0.75,0.032,0.03,0.43,0.05,0.053,0.01,0.000529352,0.015,0.0156913,0.0055725,0.00501288,701.0,766.0,22.0,52.0,-1.74957,100.946,206.497,-14.9493,78.8398,22.3462,0.0,1,1,Gar&K-1975-12mm-16ht
0.11,0.27,1.47,0.008,0.012,0.048,0.005,0.0139,650.0,33.0,3.3,300.0,0.0,0.0,0.07,0.054,0.22,0.095,0.072,0.022,0.000749105,0.005,-0.00153745,-0.014409,-0.00807822,556.0,716.0,25.0,63.0,3.68813,109.808,216.297,9.63003,51.3741,41.052,0.0,1,1,Gar&K-1975-12mm-22aw
0.11,0.37,1.52,0.03,0.009,0.0422,0.0,0.008,650.0,33.0,3.3,300.0,600.0,0.75,1.40051,-4.1162,0.0,0.05,-0.0989968,0.00347551,-0.000378098,0.0,0.0165374,0.012627,-0.00530076,571.0,644.0,20.6929,66.8481,-81.3869,31.166,325.956,30.7779,-0.351835,67.9126,0.0,1,1,Gar&K-1975-12mmE-27aw
0.11,0.33,1.41,0.019,0.023,0.0422,0.0042,0.008,450.0,30.0,1.9,300.0,0.0,0.0,0.065,0.082,0.016,0.0326035,0.19,0.024,-2.1457e-05,0.018,0.00614502,0.00662907,0.00485801,420.0,560.0,25.0,70.7329,-5.51704,73.6231,241.008,-8.78996,57.6272,51.8266,0.0,1,1,Ga&K-1975II-3aw
0.09,0.37,1.03,0.004,0.01,0.047,0.01,0.037,180.0,23.0,1.3,175.0,720.0,8.0,0.05,8.8,1.03,0.25,0.01,0.01,0.00267815,0.08,-0.00482928,-0.00220738,0.00868551,492.074,544.801,31.3184,84.1273,-16.8705,1.47852,241.0,22.256,53.0476,23.2355,0.0,1,0,PantK-1990-w4.2
0.06,0.34,1.08,0.007,0.014,0.048,0.01,0.011,116.0,23.0,1.3,175.0,720.0,8.0,0.69,9.0,1.03,0.29,0.02,0.01,0.000423121,0.01,-0.00520384,0.0131524,-0.00135562,345.477,363.975,36.719,98.483,20.9284,275.575,210.0,39.0601,1.72325,78.6637,0.0,1,0,PantK-1990-w5.2
0.07,0.23,1.0,0.002,0.006,0.046,0.01,0.025,116.0,23.0,1.3,175.0,720.0,8.0,0.58,8.3,0.93,0.24,0.01,0.01,0.000785986,0.034,-0.00900984,-0.00564951,0.00325709,632.189,719.547,16.1994,62.8144,-53.5179,10.4736,226.0,58.8278,56.8052,-24.5561,0.0,1,0,PantK-1990-w6.2
0.06,0.32,1.23,0.002,0.002,0.038,0.01,0.008,163.0,25.0,1.2,175.0,720.0,8.0,1.01,8.4,0.89,0.22,0.01,0.01,0.0028492,0.03,-0.00209666,0.00688976,0.000529258,361.153,562.146,30.5778,60.3819,-39.5741,90.6886,262.0,39.7703,27.3184,34.3524,0.0,1,0,PantK-1990-w8.2
0.11,0.27,0.6,0.002,0.01,0.0422,0.002,0.037,400.0,31.5,1.4,177.0,746.0,4.0,0.14,8.77,1.01,0.2,0.1,1.4e-06,0.001,-0.0107769,0.004,0.005,0.00932116,626.0,727.0,23.0,69.0,-9.20147,175.882,275.668,21.9759,-29.0969,92.9178,1.0,1,9,EPRI-TR-101394s-E9SA8
0.11,0.3,0.44,0.004,0.011,0.0422,0.002,0.034,275.0,28.5,1.2,177.0,746.0,4.0,0.08,8.58,1.0,0.22,0.05,4e-07,0.001,0.0477027,0.002,0.005,0.00885372,603.0,726.0,20.0,66.0,-9.85635,61.5644,241.672,-46.2192,34.8788,109.521,0.0,1,7,EPRI-TR-101394s-E9GM2
0.06,0.49,0.67,0.011,0.009,0.085,0.0042,0.008,500.0,32.0,2.0,250.0,690.0,10.0,0.21,2.63,1.06,0.243482,-0.093247,0.015,0.00108552,0.0348108,0.0106301,0.0101355,0.010587,469.0,592.0,27.0,61.7698,-75.6456,59.0734,203.537,16.3478,31.8497,49.9298,0.0,1,5,Chandel&-1985W2
0.1,0.19,0.53,0.007,0.007,0.022,0.0042,0.008,500.0,32.0,2.0,250.0,690.0,10.0,0.2,2.7,1.03,0.0818771,-0.222613,0.015,0.00152624,-0.0331523,0.00858133,-0.00509835,0.00642764,629.739,702.429,17.5598,66.0367,-20.0,176.0,243.213,56.2949,37.1184,2.90859,0.0,1,5,Chandel&-1985W3ch3
0.09,0.24,0.68,0.013,0.006,0.052,0.0042,0.008,500.0,30.0,3.6,200.0,690.0,10.0,0.2,2.22,1.03,-0.102012,-0.160435,0.01,0.00078539,-0.0020925,0.00472851,0.00389335,0.019736,455.793,546.265,30.8072,73.4808,-40.0,81.0,220.414,57.7146,14.0165,42.0148,0.0,1,6,Chandel&-1985W4ch4
0.11,0.14,0.73,0.002,0.005,0.0254,0.0042,0.0026,500.0,29.0,2.9,200.0,690.0,8.0,-1.03026,2.3,1.03,0.27,-0.0263032,-0.0105051,0.00198678,0.02,0.00726771,0.014899,-0.00278582,487.36,585.695,28.8604,81.6655,-20.0,18.0,207.604,29.6972,21.7651,57.3387,1.0,0,1,Icici&-1992-CM1ch5
0.12,0.14,1.03,0.002,0.006,0.0166,0.0042,0.0022,500.0,29.0,2.9,200.0,690.0,8.0,-0.144074,2.3,1.03,0.27,-0.381242,-0.0128211,0.000473295,0.02,0.0029677,0.00352048,0.00808271,370.766,430.609,37.0538,93.4072,-20.0,172.0,164.326,25.6048,37.5913,46.4242,1.0,0,1,Icici&-1992-CM2ch5
0.12,0.14,1.34,0.002,0.008,0.0292,0.0042,0.0037,500.0,29.0,2.9,200.0,690.0,8.0,0.812987,2.23,1.0,0.31,0.586703,-0.0155458,0.000493969,0.02,-0.00686443,0.00673562,0.00678978,660.175,684.03,25.3,73.2,-52.0079,95.4908,193.665,30.9297,3.11984,71.8506,1.0,0,1,Icici&-1992-N1a
0.084,0.415,1.24,0.011,0.015,0.048,0.0042,0.0086,170.0,21.0,2.4,100.0,550.0,1.83,0.05,0.037,0.385,0.0608579,0.105,-0.014345,0.000158287,-0.0202938,0.006,0.015,0.0005,260.189,373.357,26.6184,80.9147,-40.0,96.0,127.599,55.6298,27.9881,18.4721,0.0,1,1,Blond&-1984-A530d
0.084,0.3,0.54,0.005,0.008,0.066,0.0042,0.0066,170.0,21.0,2.4,175.0,690.0,2.33,0.036,2.2,1.05,0.240868,0.035,-0.00573482,0.0034861,0.0486287,0.004,0.007,0.0004,669.924,748.905,21.1645,67.8526,-50.0,40.0,268.827,25.0336,10.4667,91.3408,0.0,1,1,Blond&-1984-10CD9.10e
0.06,0.2,1.15,0.007,0.017,0.035,0.0042,0.0097,170.0,21.0,2.4,125.0,605.0,1.92,0.16,0.052,0.45,-0.0779035,0.128,0.0294255,0.000223547,0.0228842,0.014,0.016,0.0015,573.089,654.171,19.4124,71.513,32.8557,228.26,212.318,17.1527,-23.5372,106.118,0.0,1,1,Blond&-1984-14MNDV5f
0.048,0.13,1.06,0.014,0.016,0.0768,0.0042,0.0266,300.0,28.0,1.96,150.0,690.0,10.0,0.23,2.02,1.3,0.02,-0.144982,0.0194573,0.000225132,0.0207792,8e-07,3e-06,8e-07,454.589,502.935,26.6468,83.9812,20.0,151.0,156.98,-5.01658,76.0628,46.7722,0.0,1,2,Mart-Bf
0.042,0.14,1.33,0.012,0.015,0.0735,0.0042,0.0236,300.0,28.0,1.96,150.0,690.0,10.0,0.26,2.39,1.21,0.015,0.0657787,0.0142914,0.000218569,-0.0114097,8e-07,1.6e-06,8e-07,490.031,585.318,24.6784,70.3062,-40.0,49.0,202.525,22.0713,67.4812,11.0639,0.0,1,2,Mart-Dd
0.047,0.42,1.0,0.015,0.016,0.0695,0.0042,0.0165,300.0,28.0,2.08,150.0,690.0,10.0,0.17,2.29,1.04,0.018,0.101608,-0.0269774,0.000508459,-0.0238613,8e-07,3.4e-06,8e-07,463.473,619.269,35.7567,65.4581,-60.0,9.0,224.837,13.5646,25.5691,76.1422,0.0,1,2,Mart-Eb
0.074,0.27,1.11,0.009,0.024,0.0556,0.0042,0.0113,290.0,29.0,2.0,150.0,690.0,10.0,0.17,2.3,0.96,0.018,0.72657,-0.00392916,-0.000346521,-0.0207065,8e-07,3.2e-06,8e-07,595.0,675.0,24.0,69.0,-14.9963,193.49,199.665,-11.8058,65.8004,29.9865,0.0,1,2,Mart-F
0.074,0.27,1.11,0.009,0.024,0.0556,0.0042,0.0113,290.0,29.0,2.0,150.0,690.0,10.0,0.17,2.3,0.96,0.018,0.249321,-0.0108947,-0.00038874,-0.0102985,8e-07,3.2e-06,8e-07,533.112,668.486,17.116,63.9831,40.0,80.0,171.866,-10.9089,111.401,-7.20982,0.0,1,2,Mart-Fg
0.05,0.45,0.73,0.015,0.018,0.046,0.0042,0.008,150.0,37.5,1.0,300.0,690.0,3.0,0.271671,2.8,1.1,0.0209201,-0.0861703,-0.00458458,0.000212992,-0.00171517,-0.00976777,0.00835555,-0.00300716,591.0,705.0,17.0,70.0,-50.2291,80.0848,230.0,-76.3416,71.6918,94.1685,0.0,1,0,Wolst-1974-B
0.061,0.32,0.27,0.022,0.016,0.069,0.0042,0.008,150.0,37.5,1.0,300.0,690.0,3.0,0.40755,2.2,1.2,0.0599472,-0.482455,0.0505932,0.00297087,0.0289533,0.0109153,0.00457816,0.0105648,537.0,648.0,22.0,65.0,-32.2214,177.395,220.0,4.12582,-46.0513,154.384,0.0,1,0,Wolst-1974-AM1
0.12,0.27,1.27,0.014,0.021,0.068,0.0042,0.008,150.0,37.5,1.0,300.0,690.0,3.0,-0.730734,2.4,0.9,0.140675,-0.0289653,0.00880456,0.00103766,0.0577914,-0.00317476,0.00648834,-0.00507438,500.202,654.363,24.3893,56.566,-39.989,35.4881,244.0,45.967,39.2495,21.1333,0.0,1,0,Wolst-1974-S25
0.05,0.34,0.96,0.017,0.018,0.0422,0.0042,0.008,150.0,37.5,1.0,300.0,690.0,3.0,1.33901,2.4,1.1,0.034259,0.0921936,0.0113124,0.000964167,-0.013675,0.000720769,-0.00756017,0.00959947,429.577,567.039,29.7882,71.1901,-39.3745,95.601,233.0,55.8082,43.6136,-8.30866,0.0,1,0,Wolst-1974-BB
0.08,0.25,0.8,0.01,0.01,0.0422,0.0042,0.008,525.0,30.0,1.75,210.0,700.0,20.0,0.03,2.3,1.05,0.01,0.02,0.0147712,-0.00113992,-0.0192421,2e-07,3e-07,1e-07,527.0,627.0,25.2068,73.2587,-69.9193,135.628,220.806,51.7756,-47.5289,84.9769,0.0,1,1,Ditt-0.5t
0.08,0.25,0.8,0.01,0.01,0.0422,0.0042,0.008,525.0,30.0,1.75,210.0,700.0,20.0,0.03,2.3,1.05,0.01,0.02,0.0075521,0.00202978,0.0547055,2e-07,3e-07,1e-07,429.639,540.208,28.5998,76.1745,-30.0,152.0,260.454,90.471,-32.2249,41.6914,0.0,1,1,Ditt-0.5ach3
0.08,0.25,0.8,0.01,0.01,0.0422,0.0042,0.008,525.0,30.0,1.75,210.0,700.0,20.0,0.03,2.3,1.05,0.01,0.02,0.00528232,0.000630378,0.032814,2e-07,3e-07,1e-07,402.999,396.023,37.2873,91.3285,-30.0,170.0,212.128,105.018,-18.371,6.25518,0.0,1,1,Ditt-iatch3
0.096,0.3,0.8,0.012,0.013,0.0265,0.0042,0.0047,650.0,30.0,2.925,250.0,200.0,1.0,0.0,0.0,0.0,0.0,0.0,0.017,6.4958e-05,0.0,0.00824866,0.00508257,0.0234318,370.0,481.0,33.6,76.0,-106.618,0.35185,210.334,-3.74808,27.3408,75.8313,0.0,1,1,p11-RR82011
0.092,0.31,1.33,0.005,0.016,0.0252,0.0042,0.0084,650.0,30.0,2.925,250.0,200.0,1.0,0.0,0.0,0.0,0.0,0.0,0.017,-0.000443353,0.0,-0.00712366,-0.000418727,0.00318373,430.0,541.0,31.4,73.0,-6.00208,91.5676,218.756,-6.49989,-2.92798,96.9175,0.0,1,1,p15-RR82011
0.077,0.44,1.61,0.012,0.021,0.0434,0.0042,0.0105,450.0,30.0,2.025,250.0,200.0,1.0,0.0,0.0,0.0,0.0,0.0,0.018,0.000288771,0.0,0.00464794,0.0239439,0.00857593,456.0,567.0,27.6,73.0,-12.7831,167.842,181.72,37.4599,26.4716,13.0671,0.0,1,1,p24-RR82011
0.1,0.55,1.02,0.01,0.01,0.0262,0.0042,0.0062,190.0,23.0,1.0925,250.0,200.0,1.0,0.0,0.0,0.0,0.0,0.0,0.001,0.000766566,0.0,0.00467329,-0.00246588,-0.00197212,507.0,575.0,27.6,73.0,-125.457,-63.8914,187.492,17.4018,38.2469,28.9023,0.0,1,0,RC81033
0.073,0.34,0.64,0.008,0.007,0.045,0.0007,0.0063,170.0,21.0,1.0,200.0,250.0,14.0,0.0,0.0,0.0,0.0005,0.0,0.0005,0.0005,0.0005,0.0132394,0.00219109,0.00389154,334.526,421.93,33.8561,84.4516,-70.0,28.0,211.688,-6.26249,33.337,78.0128,0.0,0,0,EvansLetter-Ao+ch2
0.07,0.31,0.66,0.006,0.008,0.043,0.0005,0.0079,170.0,21.0,1.0,200.0,250.0,14.0,0.0,0.0,0.24,0.0005,0.0,0.0005,0.0005,0.0005,0.000853456,0.00712004,0.00159849,433.0,518.0,26.0,78.9,-92.6034,54.0121,251.832,58.7563,-34.5207,96.9744,0.0,0,0,EvansLetter-Ao+.25Mo
0.075,0.3,0.63,0.008,0.008,0.0438,0.0005,0.008,170.0,21.0,1.0,200.0,250.0,14.0,0.0,0.0,1.03,0.0005,0.0,0.0005,0.0005,0.0005,-0.00428291,0.0123429,0.000659857,275.446,324.147,35.0902,94.775,7.0,100.0,177.362,12.8445,57.4731,42.9896,0.0,0,0,EvansLetter-Ao+1Moch1
0.074,0.25,0.58,0.008,0.01,0.05,0.0004,0.0089,170.0,21.0,1.0,200.0,250.0,14.0,0.0,1.59,0.0,0.0005,0.0,0.0005,0.0005,0.0005,-0.00638199,-0.0155743,0.00218098,478.879,609.913,27.1207,66.3319,-48.0,28.0,264.997,-24.7202,51.3322,57.7155,0.0,0,0,EvansLetter-Ao+1.5Crch2
0.065,0.3,0.62,0.007,0.009,0.0519,0.0004,0.0072,170.0,21.0,1.0,200.0,250.0,14.0,0.0,0.0,0.0,0.0005,1.03,0.0005,0.0005,0.0005,0.00599509,0.00968122,0.0102495,439.0,509.0,31.6,78.9,32.3797,166.428,195.122,11.7296,93.6173,-12.663,0.0,0,0,EvansLetter-Ao+1Cu
0.063,0.31,0.65,0.006,0.009,0.0472,0.0038,0.0085,170.0,21.0,1.0,200.0,250.0,14.0,0.88,0.0,0.0,0.0005,0.0,0.0005,0.0005,0.0005,0.00999652,0.0100874,0.010825,405.674,490.527,25.7935,78.6407,-63.0,100.0,161.631,1.2039,46.3624,66.7477,0.0,0,0,EvansLetter-A+1Nich1
0.069,0.33,0.68,0.006,0.008,0.0395,0.0036,0.0067,170.0,21.0,1.0,200.0,250.0,14.0,0.0,0.0,0.24,0.0005,0.0,0.0005,0.0005,0.0005,0.0018074,-0.00619716,0.0133709,436.495,524.901,28.8304,73.1945,-82.0,28.0,213.719,-1.79423,40.5722,64.069,0.0,0,0,EvansLetter-A+.25Moch2
0.077,0.32,0.66,0.008,0.01,0.0457,0.0034,0.0075,170.0,21.0,1.0,200.0,250.0,14.0,0.0,1.03,0.0,0.0005,0.0,0.0005,0.0005,0.0005,-0.000802815,0.00806695,0.0110446,490.0,558.0,21.0,77.9,-25.8516,127.93,241.471,5.92936,18.3353,84.4065,0.0,0,0,EvansLetter-A+1Cr
0.078,0.28,0.64,0.008,0.007,0.0482,0.0042,0.0095,170.0,21.0,1.0,200.0,250.0,14.0,0.0,2.15,0.0,0.0005,0.0,0.0005,0.0005,0.0005,-0.00276238,0.00333116,0.00698842,440.799,572.93,25.0389,70.7917,8.0,100.0,205.065,30.7805,81.3585,-18.0921,0.0,0,0,EvansLetter-A+2Crch1
0.064,0.3,0.63,0.007,0.007,0.0456,0.0042,0.0065,170.0,21.0,1.0,200.0,250.0,14.0,0.0,0.0,0.0,0.0005,1.05,0.0005,0.0005,0.0005,0.00926311,0.0105883,0.00516865,506.188,603.365,20.1267,70.6277,-94.0,28.0,290.619,52.9678,43.3473,-12.6651,0.0,0,0,EvansLetter-A+1Cuch2
0.071,0.26,1.48,0.007,0.012,0.046,0.0005,0.0087,170.0,21.0,1.0,200.0,250.0,14.0,2.28,0.0,0.0,0.0005,0.0,0.0005,0.0005,0.0005,0.00888241,0.000250276,0.00906425,512.0,605.0,21.7,75.0,-22.1493,124.77,229.128,8.44126,-11.3185,109.8,0.0,0,0,EvansLetterCo+2Ni
0.076,0.25,1.45,0.008,0.006,0.0457,0.0005,0.0078,170.0,21.0,1.0,200.0,250.0,14.0,0.0,0.0,0.5,0.0005,0.0,0.0005,0.0005,0.0005,0.0098001,-0.00102112,-0.00330975,448.922,632.926,23.5404,58.0484,-4.0,100.0,155.257,42.7856,43.1784,17.9853,0.0,0,0,EvansLetterCo+.5Moch1
0.08,0.28,1.48,0.007,0.006,0.0436,0.0005,0.0094,170.0,21.0,1.0,200.0,250.0,14.0,0.0,1.07,0.0,0.0005,0.0,0.0005,0.0005,0.0005,-0.00731449,-0.00313506,-0.00286062,681.431,797.49,22.6159,62.5368,-70.0,28.0,273.817,30.4782,22.1651,51.9136,0.0,0,0,EvansLetterCo+1Crch2
0.08,0.24,1.47,0.007,0.007,0.0455,0.0005,0.0096,170.0,21.0,1.0,200.0,250.0,14.0,0.0,0.0,0.0,0.0005,0.55,0.0005,0.0005,0.0005,-0.00192389,-0.0103508,-0.00258087,453.0,535.0,26.6,78.9,-59.1238,38.3828,219.455,64.4482,74.0295,-51.291,0.0,0,0,EvansLetterCo+0.5Cu
0.074,0.28,1.46,0.008,0.008,0.0443,0.0035,0.0079,170.0,21.0,1.0,200.0,250.0,14.0,0.0,0.0,0.0,0.0005,0.0,0.0005,0.0005,0.0005,0.00156347,-0.0168223,-4.00108e-05,414.496,514.961,31.1396,78.1327,-68.0,100.0,162.59,86.966,-28.9635,35.2211,0.0,0,0,EvansLetterC+ch1
0.068,0.27,1.46,0.008,0.007,0.0436,0.0034,0.0078,170.0,21.0,1.0,200.0,250.0,14.0,2.24,0.0,0.0,0.0005,0.0,0.0005,0.0005,0.0005,0.00596586,0.0210592,0.00243786,380.794,467.535,32.7556,77.954,-102.0,28.0,203.729,-13.8382,43.4785,69.5947,0.0,0,0,EvansLetterC+2Nich2
0.078,0.29,1.48,0.007,0.01,0.0438,0.0028,0.0082,170.0,21.0,1.0,200.0,250.0,14.0,0.0,1.96,0.0,0.0005,0.0,0.0005,0.0005,0.0005,0.00958116,0.00437818,0.00563081,706.0,772.0,16.0,67.5,24.3232,174.243,194.891,40.6191,44.2499,18.2357,0.0,0,0,EvansLetterC+2Cr
0.077,0.25,1.43,0.007,0.008,0.0456,0.0019,0.0092,170.0,21.0,1.0,200.0,250.0,14.0,0.0,0.0,0.0,0.0005,1.08,0.0005,0.0005,0.0005,0.0107236,-0.000322652,0.0086353,522.679,631.065,15.9221,74.0222,-48.0,100.0,173.745,62.6194,-7.66844,62.3576,0.0,0,0,EvansLetterC+1Cuch1
0.09,0.34,0.89,0.008,0.016,0.0396,0.0042,0.0096,450.0,30.0,2.0,200.0,760.0,2.0,0.17,8.2,0.94,0.02,0.436856,-0.0205744,-0.000416367,0.005,0.00988389,0.00712025,-0.00889059,660.0,742.475,23.872,68.9621,-116.614,-35.2749,218.972,68.4339,-16.7252,41.8195,0.0,1,1,Birmingham-MAX37