File: 4 - Dataset/clustering_weld_data_removed_outliers.csv
Carbon concentration (ppm),Silicon concentration (ppm),Manganese concentration (ppm),Heat input (kJ/mm),Interpass temperature (deg C),Type of weld,Sulphur concentration (ppm),Phosphorus concentration (ppm),Oxygen concentration (ppm),Nitrogen concentration (ppm),Current (A),Voltage (V),Post weld heat treatment temperature (deg C),Post weld heat treatment time (hours),AC or DC,Electrode positive or negative,Nickel concentration (ppm),Chromium concentration (ppm),Molybdenum concentration (ppm),Vanadium concentration (ppm),Copper concentration (ppm),Titanium concentration (ppm),Aluminium concentration (ppm),Boron concentration (ppm),Niobium concentration (ppm),Yield strength (MPa),Ultimate tensile strength (MPa),Elongation (%),Reduction of Area (%),Charpy temperature (deg C),Charpy impact toughness (J)
0.293333,0.511111,0.0780142,0.105263,0.0,0,0.4375,0.0731707,0.864407,0.193966,0.0,0.0,0.0,0.0,0.0,1.0,0.634151,0.131062,0.396417,0.368504,0.326782,0.23487,0.402708,0.503464,0.343927,0.434739,0.482454,0.455267,0.470182,0.464433,0.409731
0.32,0.422222,0.87234,0.105263,0.0,0,0.3125,0.0487805,0.70904,0.314655,0.0,0.0,0.328947,0.583333,0.0,1.0,0.356456,0.209498,0.00530075,0.368504,0.419823,0.286869,0.402708,0.503464,0.343927,0.447233,0.442961,0.586981,0.522847,0.782849,0.611537
0.0666667,0.466667,0.0567376,0.105263,0.0,0,0.25,0.146341,0.714689,0.24569,0.0,0.0,0.0,0.0,0.0,1.0,0.14677,0.282439,0.187585,0.441871,0.525294,0.228751,0.559685,0.429918,0.25467,0.301196,0.311997,0.617701,0.702301,0.620356,0.409731
0.273333,0.6,0.595745,0.105263,0.0,0,0.1875,0.121951,0.607345,0.133621,0.0,0.0,0.0,0.0,0.0,1.0,0.412722,0.288451,0.420064,0.497467,0.294422,0.390867,0.523265,0.655423,0.505285,0.412552,0.492023,0.610705,0.342225,0.410666,0.409731
0.3,0.377778,0.87234,0.105263,0.0,4,0.25,0.0243902,0.299435,0.323276,0.0,0.0,0.328947,0.583333,0.0,1.0,0.572145,0.463487,0.578955,0.676233,0.609188,0.693576,0.485781,0.47219,0.602626,0.559855,0.566305,0.528676,0.360717,0.623242,0.32888
0.24,0.511111,0.595745,0.105263,0.0,0,0.3125,0.097561,0.714689,0.24569,0.0,0.0,0.763158,0.0833333,0.0,1.0,0.634078,0.39801,0.405227,0.422288,0.224612,0.398492,0.315764,0.787414,0.585184,0.389642,0.396893,0.645286,0.55203,0.604226,0.690313
0.32,0.711111,0.560284,0.105263,0.0,0,0.1875,0.097561,0.748588,0.133621,0.0,0.0,0.763158,0.0833333,0.0,1.0,0.700383,0.266569,0.138115,0.368504,0.47205,0.286869,0.663266,0.503464,0.343927,0.330771,0.37906,0.640428,0.584456,0.22786,0.209711
0.306667,0.488889,0.347518,0.105263,0.0,0,0.3125,0.0731707,0.734463,0.232759,0.0,0.0,0.763158,0.0833333,0.0,1.0,0.558185,0.318761,0.278029,0.415951,0.216966,0.288726,0.402708,0.503464,0.343927,0.362766,0.359741,0.611275,0.584456,0.351523,0.409731
0.26,0.4,0.595745,0.105263,0.0,0,0.3125,0.121951,0.751412,0.202586,0.0,0.0,0.0,0.0,0.0,1.0,0.494403,0.304974,0.21215,0.237293,0.279221,0.288726,0.402708,0.762211,0.474713,0.0,0.0,1.0,0.829098,0.32464,0.409731
0.233333,0.488889,0.319149,0.105263,0.0,0,0.3125,0.097561,0.714689,0.24569,0.0,0.0,0.763158,0.0833333,0.0,1.0,0.421085,0.283507,0.253024,0.270687,0.380833,0.155858,0.55916,0.491502,0.41795,0.342289,0.33745,0.737603,0.63958,0.496693,0.562523
0.1,0.422222,0.617021,0.105263,0.0,0,0.1875,0.0731707,0.714689,0.24569,0.0,0.0,0.763158,0.0833333,0.0,1.0,0.624814,0.436395,0.545613,0.48597,0.526125,0.356178,0.401466,0.550694,0.239887,0.33717,0.340422,0.640428,0.63958,0.38916,0.356948
0.32,0.711111,0.560284,0.105263,0.0,0,0.1875,0.097561,0.748588,0.133621,0.0,0.0,0.328947,0.583333,0.0,1.0,0.495317,0.26462,0.466043,0.368504,0.191324,0.286869,0.663266,0.503464,0.343927,0.435715,0.432559,0.572405,0.584456,0.614472,0.774433
0.306667,0.466667,0.368794,0.105263,0.0,0,0.3125,0.0487805,0.742938,0.211207,0.0,0.0,0.328947,0.583333,0.0,1.0,0.531939,0.357073,0.339173,0.505197,0.175137,0.277583,0.402708,0.503464,0.343927,0.458751,0.450392,0.50924,0.535817,0.953648,0.730913
0.286667,0.511111,0.0851064,0.105263,0.0,0,0.1875,0.0,0.740113,0.241379,0.0,0.0,0.328947,0.583333,0.0,0.0,0.438014,0.244673,0.315284,0.368504,0.240472,0.290583,0.402708,0.503464,0.343927,0.321813,0.328534,0.696304,0.53906,0.46981,0.409731
0.78,0.511111,0.609929,0.105263,0.0,0,0.3125,0.0731707,0.714689,0.24569,0.0,0.0,0.763158,0.0833333,0.0,1.0,0.845101,0.318885,0.404256,0.335022,0.206007,0.54517,0.556421,0.568355,0.414811,0.46387,0.520237,0.55297,0.389901,0.604226,0.548633
0.326667,0.4,0.737589,0.105263,0.0,0,0.3125,0.170732,0.748588,0.331897,0.0,0.0,0.328947,0.583333,0.0,0.0,0.438014,0.320946,0.315284,0.368504,0.240472,0.270155,0.402708,0.503464,0.343927,0.605927,0.593054,0.373194,0.393143,0.26012,0.209711
0.386667,0.488889,0.574468,0.105263,0.0,0,0.375,0.0731707,0.714689,0.24569,0.0,0.0,0.763158,0.0833333,0.0,1.0,0.470767,0.396686,0.362613,0.54646,0.310589,0.348157,0.623047,0.494721,0.472072,0.397321,0.438503,0.582122,0.55203,0.496693,0.562523
0.273333,0.6,0.595745,0.105263,0.0,0,0.1875,0.121951,0.607345,0.133621,0.0,0.0,0.0,0.0,0.0,1.0,0.480388,0.415698,0.516625,0.669234,0.454153,0.390867,0.523265,0.590597,0.564974,0.719912,0.807013,0.249136,0.113998,0.346147,0.209711
0.32,0.4,0.879433,0.105263,0.0,0,0.3125,0.0731707,0.754237,0.383621,0.0,0.0,0.763158,0.0833333,0.0,1.0,0.498162,0.290954,0.450845,0.368279,0.19558,0.27944,0.402708,0.503464,0.494556,0.515062,0.526181,0.421782,0.516361,0.545083,0.409731
0.0533333,0.422222,0.0780142,0.105263,0.0,0,0.3125,0.195122,0.714689,0.24569,0.0,0.0,0.0,0.0,0.0,1.0,0.877125,0.265385,0.600451,0.510945,0.526414,0.349602,0.545928,0.488651,0.23521,0.271374,0.308443,0.748223,0.433977,0.507446,0.409731
0.333333,0.6,0.602837,0.105263,0.0,0,0.3125,0.0487805,0.435028,0.297414,0.0,0.0,0.763158,0.0833333,0.0,1.0,0.683465,0.2113,0.457782,0.368504,0.289491,0.619292,0.402708,0.503464,0.343927,0.356367,0.392435,0.577263,0.53906,0.335393,0.409731
0.306667,0.288889,0.851064,0.105263,0.0,0,0.1875,0.097561,0.675141,0.280172,0.0,0.0,0.328947,0.583333,0.0,1.0,0.563943,0.25616,0.584273,0.504067,0.494832,0.26644,0.402708,0.503464,0.343927,0.561134,0.560361,0.412065,0.457995,0.0809149,0.148032
0.126667,0.511111,0.602837,0.105263,0.0,0,0.3125,0.219512,0.714689,0.24569,0.0,0.0,0.763158,0.0833333,0.0,1.0,0.86504,0.462113,0.477649,0.559885,0.298875,0.443831,0.628045,0.282805,0.391104,0.408839,0.422156,0.620993,0.490421,0.604226,0.409731
0.213333,0.422222,0.510638,0.368421,0.0,0,0.375,0.097561,0.564972,0.383621,0.021978,0.253708,0.328947,0.583333,1.0,0.0,0.545128,0.352784,0.355928,0.282257,0.354237,0.550065,0.646991,0.837018,0.165863,0.406279,0.383518,0.606416,0.668763,0.457663,0.424263
0.0866667,0.266667,0.602837,0.973684,0.0,0,0.375,0.219512,0.714689,0.24569,0.0,0.0,0.0,0.0,0.0,1.0,0.33071,0.330945,0.406643,0.522279,0.477507,0.190918,0.458697,0.741745,0.554347,0.169122,0.220585,0.830643,0.600565,0.566589,0.409731
0.26,0.733333,0.595745,0.105263,0.0,0,0.1875,0.097561,0.587571,0.0991379,0.0,0.0,0.328947,0.583333,0.0,1.0,0.461212,0.39025,0.334681,0.45504,0.280659,0.337011,0.616599,0.690614,0.38542,0.413958,0.396893,0.567546,0.642822,0.250623,0.357672
0.306667,0.333333,0.680851,0.105263,0.0,0,0.3125,0.097561,0.813559,0.258621,0.0,0.0,0.328947,0.583333,0.0,0.0,0.438014,0.244673,0.315284,0.368504,0.514152,0.260869,0.402708,0.503464,0.343927,0.440834,0.422156,0.557828,0.584456,0.21173,0.209711
0.306667,0.288889,0.680851,0.105263,0.0,0,0.375,0.0487805,0.70904,0.258621,0.0,0.0,0.328947,0.583333,0.0,0.0,0.820726,0.244673,0.315284,0.368504,0.240472,0.281297,0.402708,0.503464,0.343927,0.444673,0.41324,0.548111,0.584456,0.378406,0.409731
0.333333,0.466667,0.631206,0.105263,0.0,0,0.25,0.121951,0.751412,0.146552,0.0,0.0,0.328947,0.583333,0.0,1.0,0.514265,0.39227,0.484798,0.323429,0.223007,0.299869,0.459487,0.446675,0.588875,0.419077,0.396893,0.645286,0.642822,0.311139,0.525103
0.44,0.0222222,0.148936,1.0,0.0,3,1.0,0.439024,0.584746,0.258621,1.0,1.0,0.0,0.0,0.0,1.0,0.617295,0.292677,0.505664,0.389969,0.312765,0.444349,0.206664,0.471692,0.551146,0.259103,0.324076,0.664722,0.198588,0.711759,0.506962
0.293333,0.511111,0.0921986,0.105263,0.0,0,0.1875,0.0,0.734463,0.224138,0.0,0.0,0.328947,0.583333,0.0,1.0,0.772903,0.126205,0.572183,0.368504,0.218167,0.286869,0.402708,0.503464,0.343927,0.321813,0.328534,0.696304,0.53906,0.555402,0.487595
0.306667,0.333333,0.680851,0.105263,0.0,0,0.3125,0.097561,0.813559,0.258621,0.0,0.0,0.328947,0.583333,0.0,0.0,0.438014,0.244673,0.315284,0.368504,0.514152,0.260869,0.402708,0.503464,0.343927,0.440834,0.422156,0.557828,0.584456,0.40529,0.409731
0.453333,0.133333,0.546099,1.0,0.0,3,0.9375,0.317073,0.483051,0.172414,1.0,1.0,0.0,0.0,0.0,1.0,0.767257,0.23005,0.319711,0.389969,0.348911,0.405852,0.564334,0.450233,0.100991,0.266781,0.341908,0.567546,0.360717,0.496693,0.39584
0.32,0.422222,0.87234,0.105263,0.0,0,0.3125,0.0487805,0.70904,0.314655,0.0,0.0,0.763158,0.0833333,0.0,1.0,0.456008,0.264181,0.0734955,0.368504,0.303357,0.286869,0.402708,0.503464,0.343927,0.33717,0.364199,0.596699,0.568243,0.330017,0.409731
0.326667,1.0,0.567376,0.105263,0.0,0,0.125,0.097561,0.723164,0.133621,0.0,0.0,0.0,0.0,0.0,1.0,0.486573,0.354971,0.548563,0.640038,0.106959,0.290583,0.873268,0.407735,0.226513,0.404956,0.41181,0.609237,0.60002,0.507446,0.409731
0.293333,0.444444,0.695035,0.105263,0.0,0,0.25,0.0487805,0.590395,0.293103,0.0,0.0,0.328947,0.583333,0.0,1.0,0.438368,0.250018,0.47617,0.705411,0.456974,0.403867,0.405042,0.479804,0.435939,0.426756,0.407296,0.601557,0.613639,0.274018,0.269443
0.0866667,0.422222,0.304965,0.105263,0.0,0,0.3125,0.146341,0.714689,0.24569,0.0,0.0,0.763158,0.0833333,0.0,1.0,0.435254,0.28392,0.489992,0.202905,0.212614,0.11211,0.554135,0.253195,0.428862,0.396041,0.390949,0.586981,0.522847,0.523576,0.409731
0.306667,0.355556,0.716312,0.105263,0.0,0,0.375,0.0487805,0.785311,0.271552,0.0,0.0,0.328947,0.583333,0.0,0.0,0.438014,0.244673,0.42597,0.368504,0.240472,0.229298,0.402708,0.503464,0.343927,0.413958,0.441475,0.382912,0.522847,0.383783,0.209711
0.0933333,0.511111,0.64539,0.105263,0.0,0,0.3125,0.243902,0.714689,0.24569,0.0,0.0,0.328947,0.583333,0.0,1.0,0.438014,0.345694,0.414247,0.423871,0.292416,0.203596,0.580833,0.449918,0.285916,0.406279,0.41324,0.601557,0.577971,0.316697,0.358195
0.0,0.955556,0.255319,0.815789,0.0,1,0.625,0.219512,0.714689,0.24569,0.824176,0.214676,0.947368,0.145833,0.0,1.0,0.713421,0.397219,0.793449,0.63204,0.330352,0.312697,0.500121,0.737644,0.34836,0.255263,0.382032,0.713995,0.4409,0.634953,0.63152
0.266667,0.0888889,0.460993,1.0,0.0,3,0.6875,0.390244,0.570621,0.375,1.0,1.0,0.0,0.0,0.0,1.0,0.629023,0.198784,0.324139,0.389969,0.37473,0.314759,0.594385,0.607178,0.224838,0.255263,0.28098,0.47037,0.490421,0.496693,0.534743
0.266667,0.466667,0.0851064,0.105263,0.0,0,0.3125,0.0,0.69774,0.275862,0.0,0.0,0.0,0.0,0.0,1.0,0.470882,0.238389,0.1645,0.368956,0.371971,0.298011,0.402708,0.503464,0.641838,0.25194,0.325235,0.602977,0.510132,0.674122,0.409731
0.12,0.533333,0.553191,0.105263,0.0,0,0.3125,0.0731707,0.663842,0.211207,0.021978,0.253708,0.328947,0.583333,0.0,1.0,0.430556,0.341053,0.536197,0.613611,0.385154,0.33689,0.532187,0.7565,0.4812,0.40244,0.376088,0.625851,0.63958,0.844411,0.572302
0.32,0.711111,0.560284,0.105263,0.0,0,0.1875,0.097561,0.748588,0.133621,0.0,0.0,0.0,0.0,0.0,1.0,0.533179,0.465271,0.387281,0.368504,0.193326,0.286869,0.663266,0.503464,0.343927,0.621399,0.54158,0.453682,0.625693,0.37303,0.409731
0.0466667,0.4,0.0921986,0.105263,0.0,0,0.375,0.195122,0.714689,0.24569,0.0,0.0,0.763158,0.0833333,0.0,1.0,0.425908,0.244673,0.0831624,0.0,0.316014,0.320817,0.155265,0.574015,0.255692,0.280859,0.272063,0.742462,0.63958,0.550459,0.409731
0.533333,0.0888889,0.404255,1.0,0.0,3,0.625,0.341463,0.528249,0.24569,1.0,1.0,0.0,0.0,0.0,1.0,0.647101,0.3834,0.328566,0.389969,0.364403,0.417357,0.382898,0.580053,0.410196,0.288538,0.313673,0.664722,0.425569,0.38916,0.173597
0.286667,0.488889,0.0992908,0.105263,0.0,0,0.3125,0.0731707,0.813559,0.232759,0.0,0.0,0.328947,0.583333,0.0,0.0,0.438014,0.244673,0.536657,0.368504,0.240472,0.229298,0.402708,0.503464,0.343927,0.408839,0.425128,0.484947,0.457995,0.303133,0.209711
0.293333,0.4,0.659574,0.105263,0.0,0,0.3125,0.121951,0.483051,0.271552,0.0,0.0,0.0,0.0,0.0,1.0,0.43383,0.375033,0.412204,0.363675,0.329768,0.442866,0.464327,0.66386,0.340705,0.421637,0.393921,0.562687,0.613639,0.55623,0.550549
0.26,0.866667,0.617021,0.105263,0.0,0,0.125,0.097561,0.601695,0.0862069,0.0,0.0,0.0,0.0,0.0,1.0,0.448049,0.21577,0.486273,0.480671,0.485867,0.348153,0.772156,0.455027,0.291506,0.276615,0.278503,0.779727,0.616927,0.335393,0.209711
0.126667,0.511111,0.602837,0.105263,0.0,0,0.3125,0.219512,0.714689,0.24569,0.0,0.0,0.0,0.0,0.0,1.0,0.86504,0.334308,0.580468,0.565369,0.445967,0.318991,0.491635,0.519256,0.57784,0.367525,0.437011,0.617194,0.43919,0.399913,0.409731
0.0866667,0.177778,0.0,0.973684,0.0,0,0.4375,0.146341,0.714689,0.24569,0.0,0.0,0.0,0.0,0.0,1.0,0.634115,0.35721,0.501565,0.763607,0.553527,0.668338,0.494875,0.575613,0.815001,0.491303,0.560448,0.524668,0.290226,0.631109,0.409731
0.333333,0.355556,0.680851,0.105263,0.0,0,0.3125,0.0487805,0.762712,0.314655,0.0,0.0,0.328947,0.583333,0.0,0.0,0.438014,0.323908,0.315284,0.368504,0.240472,0.229298,0.402708,0.503464,0.343927,0.536818,0.572249,0.324607,0.250469,0.604226,0.409731
0.313333,0.377778,0.886525,0.105263,0.0,0,0.375,0.121951,0.751412,0.327586,0.0,0.0,0.763158,0.0833333,0.0,1.0,0.564682,0.397284,0.496083,0.368279,0.263053,0.277583,0.402708,0.503464,0.641838,0.545777,0.576708,0.412065,0.357475,0.631109,0.409731
0.32,0.444444,0.617021,0.105263,0.0,0,0.3125,0.121951,0.762712,0.193966,0.0,0.0,0.328947,0.583333,0.0,1.0,0.564987,0.311547,0.428189,0.368504,0.292417,0.298011,0.433042,0.503464,0.343927,0.419077,0.398379,0.625851,0.584456,0.508777,0.414606
0.28,0.577778,0.404255,0.105263,0.0,0,0.25,0.121951,0.850282,0.275862,0.0,0.0,0.0,0.0,0.0,1.0,0.70004,0.452017,0.406729,0.252361,0.289121,0.281297,0.324531,0.639368,0.431433,0.274408,0.336248,0.628529,0.565459,0.819292,0.409731
0.533333,0.0444444,0.148936,0.605263,0.0,1,0.0,0.0243902,0.248588,0.0215517,0.725275,0.156128,0.907895,0.333333,1.0,0.0,0.390904,0.414992,0.771312,0.977406,0.506469,0.656356,0.925895,0.355927,0.474472,0.68958,0.691135,0.189373,0.101215,0.604226,0.193043
0.1,0.311111,0.829787,0.421053,0.0,0,0.3125,0.195122,0.714689,0.24569,0.0,0.0,0.328947,0.583333,0.0,1.0,0.370863,0.417463,0.545676,0.617562,0.193117,0.356953,0.420995,0.60097,0.324299,0.390922,0.408782,0.664722,0.581213,0.390336,0.365246
0.253333,0.511111,0.702128,0.105263,0.0,4,0.25,0.0487805,0.522599,0.284483,0.0,0.0,0.0,0.0,0.0,1.0,0.558666,0.339303,0.541016,0.658433,0.136101,0.405724,0.708274,0.599594,0.329631,0.350815,0.47764,0.594073,0.496,0.3569,0.209711
0.326667,0.377778,0.900709,0.105263,0.0,0,0.25,0.0731707,0.677966,0.362069,0.0,0.0,0.0,0.0,0.0,1.0,0.706334,0.206632,0.283978,0.368279,0.127997,0.281297,0.402708,0.503464,0.939748,0.474299,0.431063,0.628353,0.546084,0.679499,0.409731
0.0933333,0.511111,0.64539,0.105263,0.0,0,0.3125,0.243902,0.714689,0.24569,0.0,0.0,0.0,0.0,0.0,1.0,0.438014,0.457719,0.416289,0.672885,0.291092,0.357202,0.498142,0.389064,0.343271,0.821527,0.84529,0.439275,0.193794,0.426796,0.409731
0.78,0.511111,0.609929,0.105263,0.0,0,0.3125,0.0731707,0.714689,0.24569,0.0,0.0,0.763158,0.0833333,0.0,1.0,0.527741,0.146554,0.497641,0.279572,0.273538,0.0500719,0.449159,0.71333,0.391424,0.46387,0.520237,0.55297,0.389901,0.38916,0.290275
0.393333,0.466667,0.829787,0.105263,0.0,0,0.3125,0.097561,0.714689,0.24569,0.0,0.0,0.763158,0.0833333,0.0,1.0,0.306126,0.0880865,0.424514,0.335405,0.381745,0.27899,0.348013,0.578892,0.478603,0.434435,0.481599,0.620993,0.457995,0.335393,0.279163
0.326667,0.6,0.602837,0.105263,0.0,0,0.1875,0.170732,0.79096,0.112069,0.0,0.0,0.328947,0.583333,0.0,1.0,0.650803,0.0901074,0.485435,0.543388,0.424958,0.229298,0.593265,0.40898,0.489683,0.366606,0.393921,0.499523,0.584456,0.62434,0.508236
0.326667,0.555556,0.921986,0.105263,0.0,0,0.25,0.0731707,0.446328,0.258621,0.0,0.0,0.763158,0.0833333,0.0,1.0,0.61728,0.419104,0.598227,0.368504,0.351452,0.693576,0.402708,0.503464,0.343927,0.413958,0.448905,0.601557,0.555273,0.383783,0.409731
0.14,0.422222,0.794326,0.105263,0.0,0,0.1875,0.292683,0.463277,0.168103,0.021978,0.253708,0.328947,0.583333,0.0,1.0,0.250205,0.181813,0.338553,0.490918,0.52329,0.23079,0.213106,0.394781,0.577149,0.443393,0.425128,0.616134,0.548787,0.871365,0.767098
0.32,0.444444,0.617021,0.105263,0.0,0,0.3125,0.121951,0.762712,0.193966,0.0,0.0,0.0,0.0,0.0,1.0,0.815442,0.350466,0.265757,0.368504,0.109588,0.298011,0.433042,0.503464,0.343927,0.571452,0.50295,0.535565,0.603892,0.238613,0.209711
0.6,0.0444444,0.361702,0.605263,0.0,1,0.0,0.0487805,0.0,0.00431034,0.725275,0.156128,0.907895,0.333333,1.0,0.0,0.292154,0.414992,0.771312,0.977406,0.444579,0.559541,0.572564,0.802912,0.474472,0.712316,0.701537,0.359645,0.394327,0.496693,0.279163
0.326667,0.466667,0.602837,0.105263,0.0,0,0.3125,0.0487805,0.70904,0.327586,0.0,0.0,0.763158,0.0833333,0.0,1.0,0.227846,0.125532,0.422426,0.368279,0.274074,0.283154,0.402708,0.503464,0.410873,0.447233,0.453364,0.489805,0.490421,0.383783,0.409731
0.313333,0.355556,0.900709,0.105263,0.0,0,0.3125,0.0487805,0.771186,0.262931,0.0,0.0,0.0,0.0,0.0,1.0,0.596778,0.0454825,0.283679,0.368504,0.289538,0.233012,0.402708,0.503464,0.343927,0.263447,0.235959,0.737839,0.646309,0.684876,0.409731
0.313333,0.311111,0.595745,0.105263,0.0,0,0.3125,0.0731707,0.689266,0.25,0.0,0.0,0.763158,0.0833333,0.0,1.0,0.474044,0.38851,0.661656,0.463398,0.015584,0.273869,0.402708,0.503464,0.343927,0.480507,0.477141,0.518958,0.490421,0.378406,0.409731
0.333333,0.266667,0.673759,0.105263,0.0,0,0.3125,0.0731707,0.816384,0.323276,0.0,0.0,0.328947,0.583333,0.0,0.0,0.438014,0.244673,0.315284,0.368504,0.52448,0.229298,0.402708,0.503464,0.343927,0.387082,0.389463,0.533534,0.584456,0.518199,0.209711
0.206667,0.466667,0.595745,0.105263,0.0,4,0.1875,0.0487805,0.714689,0.258621,0.0,0.0,0.328947,0.583333,0.0,1.0,0.418884,0.0571023,0.196212,0.360935,0.422922,0.272012,0.395219,0.595632,0.0,0.413958,0.393921,0.66958,0.581213,0.246779,0.482768
0.306667,0.511111,0.347518,0.105263,0.0,0,0.375,0.0243902,0.663842,0.228448,0.0,0.0,0.328947,0.583333,0.0,1.0,0.432944,0.293479,0.409831,0.368504,0.374053,0.296154,0.402708,0.503464,0.343927,0.374284,0.370144,0.642857,0.522847,0.314841,0.259458
0.326667,0.377778,0.900709,0.105263,0.0,0,0.25,0.0731707,0.677966,0.362069,0.0,0.0,0.328947,0.583333,0.0,1.0,0.618461,0.446361,0.403754,0.368279,0.131517,0.281297,0.402708,0.503464,0.939748,0.644321,0.646553,0.353759,0.321806,0.683354,0.443706
0.3,0.466667,0.070922,0.105263,0.0,0,0.3125,0.0243902,0.742938,0.275862,0.0,0.0,0.328947,0.583333,0.0,1.0,0.379009,0.417614,0.52424,0.368053,0.342599,0.298011,0.402708,0.503464,0.487861,0.413958,0.416212,0.538393,0.642822,0.540005,0.325402
0.286667,0.511111,0.0851064,0.105263,0.0,0,0.1875,0.0,0.740113,0.241379,0.0,0.0,0.328947,0.583333,0.0,1.0,0.483244,0.113514,0.389388,0.368053,0.205238,0.290583,0.402708,0.503464,0.343927,0.321813,0.328534,0.696304,0.53906,0.681668,0.432728
0.0933333,0.511111,0.64539,0.105263,0.0,0,0.3125,0.243902,0.714689,0.24569,0.0,0.0,0.0,0.0,0.0,1.0,0.64054,0.244673,0.538273,0.432706,0.335582,0.372639,0.382667,0.303922,0.404318,0.32907,0.330408,0.511758,0.595815,0.432173,0.409731
0.313333,0.444444,0.375887,0.105263,0.0,0,0.375,0.0487805,0.661017,0.219828,0.0,0.0,0.328947,0.583333,0.0,1.0,0.615057,0.291594,0.550837,0.559422,0.253652,0.283154,0.402708,0.503464,0.343927,0.495865,0.474169,0.499523,0.425569,0.647123,0.514847
0.4,0.266667,0.113475,0.789474,0.0,6,0.6875,0.0487805,1.0,0.24569,0.725275,0.175644,0.907895,0.416667,0.0,1.0,0.518585,0.409068,0.771312,0.917442,0.577144,0.565949,0.476598,0.295364,0.475036,0.492026,0.526181,0.446076,0.315958,0.856928,0.531965
0.313333,0.511111,0.35461,0.105263,0.0,0,0.3125,0.0243902,0.658192,0.232759,0.0,0.0,0.763158,0.0833333,0.0,1.0,0.221123,0.241809,0.382035,0.368279,0.312375,0.296154,0.402708,0.503464,0.343927,0.232227,0.279493,0.696304,0.629852,0.281627,0.409731
0.306667,0.377778,0.865248,0.105263,0.0,0,0.375,0.0487805,0.70339,0.306034,0.0,0.0,0.763158,0.0833333,0.0,1.0,0.208038,0.467447,0.290775,0.368279,0.30579,0.285012,0.402708,0.503464,0.344596,0.33717,0.364199,0.596699,0.568243,0.330017,0.409731
0.78,0.533333,0.35461,0.105263,0.0,0,0.3125,0.0731707,0.714689,0.24569,0.0,0.0,0.763158,0.0833333,0.0,1.0,0.732262,0.288493,0.43468,0.34845,0.293304,0.040661,0.353849,0.494646,0.317473,0.424196,0.450392,0.601557,0.519604,0.38916,0.22638
0.313333,0.355556,0.900709,0.105263,0.0,0,0.3125,0.0487805,0.771186,0.262931,0.0,0.0,0.763158,0.0833333,0.0,1.0,0.230367,0.224096,0.322768,0.368504,0.378708,0.233012,0.402708,0.503464,0.343927,0.294937,0.33745,0.625851,0.584456,0.448303,0.409731
0.313333,0.311111,0.858156,0.105263,0.0,0,0.3125,0.097561,0.725989,0.219828,0.0,0.0,0.763158,0.0833333,0.0,1.0,0.329613,0.152062,0.526258,0.42047,0.2748,0.270155,0.402708,0.503464,0.343927,0.476668,0.489029,0.50924,0.457995,0.394536,0.409731
0.273333,0.666667,0.617021,0.105263,0.0,0,0.3125,0.0243902,0.79096,0.189655,0.0,0.0,0.0,0.0,0.0,1.0,0.541064,0.320729,0.544956,0.667733,0.389781,1.0,0.515487,0.666304,0.384999,0.322107,0.382259,0.748535,0.455039,0.313887,0.209711
0.24,0.755556,0.631206,0.105263,0.0,0,0.125,0.121951,0.680791,0.12069,0.0,0.0,0.328947,0.583333,0.0,1.0,0.402275,0.343079,0.610475,0.815158,0.634451,0.66572,0.741044,0.71378,0.342013,0.475388,0.456336,0.47037,0.490421,0.61388,0.384353
0.233333,0.488889,0.319149,0.105263,0.0,0,0.3125,0.097561,0.714689,0.24569,0.0,0.0,0.763158,0.0833333,0.0,1.0,0.520991,0.265909,0.463452,0.506436,0.271062,0.319431,0.528552,0.438778,0.516378,0.342289,0.33745,0.737603,0.63958,0.819292,0.743096
0.393333,0.511111,0.113475,0.105263,0.0,0,0.375,0.097561,0.714689,0.24569,0.0,0.0,0.763158,0.0833333,0.0,1.0,0.515539,0.286016,0.52311,0.574635,0.527162,0.468881,0.469621,0.553312,0.382999,0.311574,0.335964,0.718168,0.581213,0.604226,0.568079
0.346667,0.133333,0.163121,1.0,0.0,3,0.75,0.390244,0.607345,0.37931,1.0,1.0,0.0,0.0,0.0,1.0,0.656441,0.117499,0.324139,0.378672,0.354075,0.194841,0.469499,0.590428,0.289819,0.253984,0.272063,0.761897,0.360717,0.38916,0.318055
0.28,0.577778,0.404255,0.105263,0.0,0,0.25,0.121951,0.850282,0.275862,0.0,0.0,0.763158,0.0833333,0.0,1.0,0.644045,0.452017,0.438768,0.268852,0.20294,0.281297,0.232027,0.452835,0.489414,0.325928,0.351206,0.573908,0.646623,0.717135,0.409731
0.313333,0.444444,0.886525,0.105263,0.0,0,0.3125,0.0487805,0.711864,0.293103,0.0,0.0,0.763158,0.0833333,0.0,1.0,0.610049,0.297862,0.326598,0.368279,0.38565,0.277583,0.402708,0.503464,0.424262,0.477948,0.493488,0.480088,0.425569,0.383783,0.409731
0.14,0.466667,0.929078,0.105263,0.0,0,0.25,0.219512,0.714689,0.24569,0.0,0.0,0.763158,0.0833333,0.0,1.0,0.544175,0.28318,0.6045,0.514015,0.373205,0.34264,0.273092,0.346808,0.417351,0.536818,0.560361,0.47037,0.253712,0.701006,0.409731
0.286667,0.466667,0.617021,0.105263,0.0,0,0.3125,0.097561,0.737288,0.193966,0.0,0.0,0.328947,0.583333,0.0,1.0,0.424722,0.26349,0.45923,0.368504,0.287987,0.29244,0.414375,0.503464,0.343927,0.415238,0.390949,0.698733,0.642822,0.626841,0.111243
0.06,0.444444,0.0992908,0.105263,0.0,0,0.25,0.170732,0.714689,0.24569,0.0,0.0,0.328947,0.583333,0.0,1.0,0.651527,0.404689,0.602737,0.464297,0.294455,0.471797,0.462376,0.541185,0.259501,0.333331,0.313673,0.679298,0.597426,0.250658,0.728698
0.246667,0.622222,0.680851,0.105263,0.0,0,0.25,0.097561,0.338983,1.0,0.0,0.0,0.0,0.0,0.0,1.0,0.52763,0.437296,0.540026,0.539547,0.286841,0.814289,0.509083,0.736345,0.667695,0.506103,0.517265,0.460653,0.490421,0.468345,0.12472
0.28,0.466667,0.496454,0.105263,0.0,0,0.375,0.0487805,0.793785,0.275862,0.0,0.0,0.0,0.0,0.0,1.0,0.541655,0.328565,0.264072,0.410303,0.513794,0.273869,0.402708,0.503464,0.343927,0.429252,0.35441,0.627966,0.615118,0.3569,0.409731
0.146667,0.466667,0.914894,0.105263,0.0,0,0.3125,0.219512,0.714689,0.24569,0.0,0.0,0.0,0.0,0.0,1.0,0.390932,0.32613,0.489026,0.662534,0.386147,0.524551,0.360512,0.673222,0.490044,0.436352,0.414043,0.38562,0.364801,0.561213,0.409731
0.313333,0.511111,0.35461,0.105263,0.0,0,0.3125,0.0243902,0.658192,0.232759,0.0,0.0,0.0,0.0,0.0,1.0,0.572213,0.39188,0.430999,0.368279,0.214254,0.296154,0.402708,0.503464,0.343927,0.440035,0.502292,0.518924,0.342889,0.38916,0.409731
0.1,0.422222,0.617021,0.105263,0.0,0,0.1875,0.0731707,0.714689,0.24569,0.0,0.0,0.763158,0.0833333,0.0,1.0,0.48161,0.307598,0.295324,0.195,0.179935,0.0334684,0.366906,0.434373,0.416822,0.33717,0.340422,0.640428,0.63958,0.604226,0.743096
0.293333,0.533333,0.0780142,0.105263,0.0,0,0.375,0.0243902,0.751412,0.232759,0.0,0.0,0.763158,0.0833333,0.0,1.0,0.44621,0.424658,0.362778,0.502937,0.275523,0.277583,0.402708,0.503464,0.343927,0.393481,0.407296,0.50924,0.490421,0.561213,0.409731
0.32,0.4,0.879433,0.105263,0.0,0,0.3125,0.0731707,0.754237,0.383621,0.0,0.0,0.328947,0.583333,0.0,1.0,0.504784,0.337087,0.305791,0.368279,0.310962,0.27944,0.402708,0.503464,0.494556,0.543217,0.53807,0.436359,0.425569,0.684497,0.414196
0.333333,0.555556,0.638298,0.105263,0.0,0,0.25,0.121951,0.771186,0.142241,0.0,0.0,0.763158,0.0833333,0.0,1.0,0.385808,0.21875,0.454793,0.368504,0.40036,0.299869,0.492154,0.503464,0.343927,0.315414,0.364199,0.640428,0.613639,0.34077,0.409731
0.28,0.488889,0.574468,0.105263,0.0,0,0.25,0.097561,0.737288,0.155172,0.0,0.0,0.328947,0.583333,0.0,1.0,0.555379,0.257217,0.470278,0.532727,0.153654,0.572864,0.515487,0.611424,0.16577,0.404999,0.370144,0.596699,0.522847,0.669143,0.670078
0.266667,0.377778,0.695035,0.105263,0.0,0,0.375,0.121951,0.49435,0.616379,0.0,0.0,0.0,0.0,0.0,1.0,0.422571,0.395544,0.683542,0.617507,0.309255,0.442866,0.720976,0.649917,0.306184,0.46387,0.445933,0.499523,0.490421,0.609178,0.24143
0.306667,0.577778,0.106383,0.105263,0.0,0,0.4375,0.0731707,0.553672,0.211207,0.0,0.0,0.763158,0.0833333,0.0,1.0,0.404968,0.203609,0.449029,0.368504,0.373141,0.517151,0.402708,0.503464,0.343927,0.27446,0.285438,0.625851,0.613639,0.410666,0.409731
0.273333,0.533333,0.666667,0.105263,0.0,4,0.125,0.0487805,0.661017,0.275862,0.0,0.0,0.0,0.0,0.0,1.0,0.384175,0.355617,0.388173,0.426371,0.205708,0.260869,0.377959,0.595056,0.30403,0.492743,0.459671,0.474199,0.592709,0.362276,0.409731
0.32,0.711111,0.624113,0.105263,0.0,0,0.125,0.170732,0.762712,0.0991379,0.0,0.0,0.0,0.0,0.0,1.0,0.521117,0.357848,0.444031,0.579097,0.169182,0.229298,0.725489,0.498142,0.471072,0.493187,0.495492,0.609904,0.471626,0.550459,0.409731
0.313333,0.444444,0.574468,0.105263,0.0,0,0.3125,0.0243902,0.723164,0.267241,0.0,0.0,0.328947,0.583333,0.0,1.0,0.643995,0.202834,0.231883,0.368504,0.282731,0.286869,0.402708,0.503464,0.343927,0.39988,0.398379,0.545681,0.487178,0.322482,0.205792
0.293333,0.466667,0.0851064,0.105263,0.0,0,0.375,0.0487805,0.830508,0.383621,0.0,0.0,0.328947,0.583333,0.0,1.0,0.600351,0.231162,0.220069,0.368053,0.539365,0.29244,0.402708,0.503464,0.929706,0.509943,0.506862,0.47037,0.321806,0.974211,0.561957
0.28,0.533333,0.0851064,0.105263,0.0,0,0.375,0.0487805,0.762712,0.271552,0.0,0.0,0.763158,0.0833333,0.0,1.0,0.674035,0.2876,0.398686,0.551514,0.400395,0.283154,0.402708,0.503464,0.343927,0.425476,0.450392,0.499523,0.490421,0.593473,0.409731
0.293333,0.466667,0.659574,0.105263,0.0,4,0.1875,0.0243902,0.683616,0.297414,0.0,0.0,0.328947,0.583333,0.0,1.0,0.764479,0.184758,0.317154,0.16941,0.0343249,0.231155,0.312621,0.585336,0.14206,0.39988,0.392435,0.645286,0.581213,0.349214,0.33371
0.34,0.377778,0.64539,0.105263,0.0,0,0.25,0.219512,0.833333,0.142241,0.0,0.0,0.328947,0.583333,0.0,1.0,0.591113,0.305087,0.28361,0.347501,0.393772,0.229298,0.445487,0.541826,0.300196,0.375564,0.399865,0.557828,0.389901,0.440204,0.242902
0.233333,0.488889,0.319149,0.105263,0.0,0,0.3125,0.097561,0.714689,0.24569,0.0,0.0,0.763158,0.0833333,0.0,1.0,0.769014,0.499738,0.229857,0.516886,0.434101,0.376889,0.62676,0.635788,0.359056,0.342289,0.33745,0.737603,0.63958,0.442926,0.409731
0.0533333,0.266667,0.0212766,0.421053,0.0,0,0.3125,0.0243902,0.714689,0.24569,0.0,0.0,0.328947,0.583333,0.0,1.0,0.331961,0.19138,0.680108,0.576856,0.655134,0.385062,0.631643,0.370775,0.421303,0.305175,0.273549,0.616134,0.63958,0.35979,0.144807
0.04,0.266667,0.262411,0.421053,0.0,0,0.375,0.146341,0.714689,0.24569,0.0,0.0,0.328947,0.583333,0.0,1.0,0.659132,0.20934,0.365359,0.265847,0.330715,0.197322,0.563888,0.443236,0.211176,0.319253,0.304757,0.679298,0.63958,0.112407,0.379763
0.3,0.4,0.560284,0.105263,0.0,0,0.375,0.0487805,0.776836,0.258621,0.0,0.0,0.763158,0.0833333,0.0,1.0,0.411786,0.169112,0.229267,0.368504,0.444544,0.229298,0.402708,0.503464,0.343927,0.266781,0.307729,0.606416,0.574728,0.32464,0.409731
0.326667,1.0,0.567376,0.105263,0.0,0,0.125,0.097561,0.723164,0.133621,0.0,0.0,0.328947,0.583333,0.0,1.0,0.690295,0.207938,0.507992,0.621776,0.562249,0.290583,0.873268,0.295325,0.438385,0.435715,0.441475,0.596699,0.522847,0.273862,0.157574
0.0866667,0.266667,0.602837,0.973684,0.0,0,0.375,0.219512,0.714689,0.24569,0.0,0.0,0.328947,0.583333,0.0,1.0,0.587776,0.228314,0.441525,0.487189,0.428898,0.404686,0.621391,0.651736,0.201751,0.325652,0.33745,0.659863,0.63958,0.314048,0.569104
0.4,0.266667,0.113475,0.789474,0.0,6,0.6875,0.0487805,1.0,0.24569,0.725275,0.175644,0.907895,0.416667,0.0,1.0,0.518585,0.409068,0.771312,0.586687,0.380591,0.302811,0.476598,0.603001,0.553619,0.492026,0.526181,0.446076,0.344154,0.604226,0.440289
0.293333,0.288889,0.624113,0.105263,0.0,0,0.375,0.0731707,0.872881,0.25,0.0,0.0,0.0,0.0,0.0,1.0,0.366328,0.527235,0.273035,0.250459,0.141402,0.22187,0.490144,0.397522,0.251703,0.376844,0.37906,0.572405,0.555273,0.216253,0.0546255
0.0466667,0.4,0.0921986,0.105263,0.0,0,0.375,0.195122,0.714689,0.24569,0.0,0.0,0.0,0.0,0.0,1.0,0.708977,0.244673,0.251516,0.365697,0.213578,0.27704,0.23287,0.619948,0.544791,0.458167,0.442472,0.655033,0.602485,0.571966,0.409731
0.24,0.711111,0.574468,0.105263,0.0,0,0.125,0.097561,0.813559,0.12069,0.0,0.0,0.328947,0.583333,0.0,1.0,0.547278,0.381105,0.858237,0.957771,0.304087,0.66572,0.927713,0.374876,0.468516,0.475388,0.472683,0.465511,0.357475,0.587685,0.488514
0.266667,0.488889,0.382979,0.105263,0.0,0,0.25,0.097561,0.838983,0.275862,0.0,0.0,0.0,0.0,0.0,1.0,0.630148,0.360934,0.50329,0.413639,0.321812,0.296154,0.427881,0.733999,0.332607,0.21531,0.238556,0.756168,0.786567,0.496693,0.409731
0.306667,0.288889,0.659574,0.105263,0.0,0,0.375,0.0487805,0.822034,0.24569,0.0,0.0,0.328947,0.583333,0.0,0.0,0.438014,0.244673,0.536657,0.368504,0.240472,0.229298,0.402708,0.503464,0.343927,0.476668,0.500918,0.358618,0.457995,0.690252,0.409731
0.386667,0.488889,0.574468,0.105263,0.0,0,0.375,0.0731707,0.714689,0.24569,0.0,0.0,0.763158,0.0833333,0.0,1.0,0.283073,0.0942997,0.314869,0.310492,0.388349,0.199963,0.473079,0.658146,0.24657,0.397321,0.438503,0.582122,0.55203,0.38916,0.426399
0.3,0.444444,0.929078,0.105263,0.0,0,0.25,0.0731707,0.508475,0.262931,0.0,0.0,0.763158,0.0833333,0.0,1.0,0.523995,0.139847,0.34226,0.368504,0.337317,0.535722,0.402708,0.503464,0.343927,0.410119,0.434045,0.562687,0.555273,0.40529,0.409731
0.133333,0.577778,0.638298,0.0,0.0,0,0.3125,0.121951,0.714689,0.24569,0.0,0.0,0.0,0.0,0.0,1.0,0.569284,0.363576,0.542204,0.459185,0.448546,0.308341,0.57861,0.548949,0.573109,0.291303,0.297856,0.765985,0.528283,0.459056,0.409731
0.113333,0.466667,0.638298,0.105263,0.0,0,0.25,0.146341,0.714689,0.24569,0.0,0.0,0.0,0.0,0.0,1.0,0.506919,0.28392,0.121054,0.0188165,0.216555,0.0565578,0.432703,0.37882,0.395492,0.116248,0.116713,0.782807,0.605185,0.475186,0.409731
0.3,0.511111,0.404255,0.105263,0.0,0,0.25,0.097561,0.728814,0.284483,0.0,0.0,0.763158,0.0833333,0.0,1.0,0.42261,0.335016,0.241329,0.413333,0.265069,0.316583,0.495894,0.70639,0.432637,0.426131,0.542362,0.414778,0.383926,0.38916,0.409731
0.293333,0.466667,0.333333,0.105263,0.0,0,0.375,0.0487805,0.641243,0.288793,0.0,0.0,0.763158,0.0833333,0.0,1.0,0.392143,0.420811,0.463924,0.368279,0.330541,0.288726,0.402708,0.503464,0.65188,0.498424,0.509834,0.4315,0.457995,0.604226,0.409731
0.6,0.0444444,0.361702,0.605263,0.0,1,0.0,0.0487805,0.0,0.00431034,0.725275,0.156128,0.907895,0.333333,1.0,0.0,0.797166,0.414992,0.771312,0.977406,0.493158,0.787428,0.670097,0.691522,0.474472,0.608336,0.701537,0.357997,0.269276,0.496693,0.234714
0.253333,0.355556,0.624113,0.105263,0.0,0,0.5,0.097561,0.686441,0.547414,0.0,0.0,0.0,0.0,0.0,1.0,0.675709,0.19883,0.235171,0.540444,0.266009,0.277583,0.58462,0.604587,0.0288515,0.424196,0.404323,0.567546,0.584456,0.343614,0.0369224
0.266667,0.8,0.794326,0.105263,0.0,4,0.1875,0.0487805,0.350282,0.349138,0.0,0.0,0.0,0.0,0.0,1.0,0.581023,0.298231,0.513747,0.658959,0.390201,0.610006,0.617492,0.28409,0.235164,0.320178,0.256533,0.724489,1.0,0.416043,0.409731
0.0533333,0.266667,0.0212766,0.421053,0.0,0,0.3125,0.0243902,0.714689,0.24569,0.0,0.0,0.0,0.0,0.0,1.0,0.620713,0.28837,0.280727,0.350076,0.31476,0.453855,0.61161,0.472813,0.596473,0.722505,0.656662,0.399997,0.475634,0.502069,0.409731
0.3,0.466667,0.070922,0.105263,0.0,0,0.3125,0.0243902,0.742938,0.275862,0.0,0.0,0.763158,0.0833333,0.0,1.0,0.497993,0.221201,0.484639,0.368053,0.386035,0.298011,0.402708,0.503464,0.487861,0.384523,0.395407,0.480088,0.555273,0.566589,0.409731
0.333333,0.466667,0.631206,0.105263,0.0,0,0.25,0.121951,0.751412,0.172414,0.0,0.0,0.0,0.0,0.0,1.0,0.439025,0.309814,0.31986,0.368504,0.317443,0.299869,0.459487,0.503464,0.343927,0.213282,0.296544,0.648671,0.45734,0.416043,0.409731
0.806667,0.533333,0.0780142,0.105263,0.0,0,0.375,0.097561,0.714689,0.24569,0.0,0.0,0.763158,0.0833333,0.0,1.0,0.774181,0.169331,0.472145,0.616517,0.553352,0.334249,0.762277,0.752861,0.348364,0.381963,0.386491,0.63071,0.490421,0.442926,0.22638
0.6,0.333333,0.666667,1.0,0.0,3,0.75,0.536585,0.562147,0.241379,1.0,1.0,0.0,0.0,0.0,1.0,0.524011,0.361484,0.527802,0.389969,0.395385,0.106328,0.495911,0.471267,0.698108,0.689114,0.618318,0.71331,0.26344,0.604226,0.348614
0.286667,0.488889,0.390071,0.105263,0.0,0,0.25,0.0731707,0.745763,0.293103,0.0,0.0,0.0,0.0,0.0,1.0,0.429151,0.390555,0.362645,0.384264,0.181225,0.294297,0.270022,0.635975,0.401008,0.451827,0.570989,0.423127,0.229537,0.577343,0.409731
0.306667,0.266667,0.631206,0.105263,0.0,0,0.375,0.0487805,0.793785,0.275862,0.0,0.0,0.328947,0.583333,0.0,0.0,0.438014,0.244673,0.806731,0.368504,0.240472,0.229298,0.402708,0.503464,0.343927,0.567533,0.633178,0.353759,0.250469,0.442926,0.209711
0.32,0.688889,0.411348,0.105263,0.0,0,0.3125,0.0243902,0.460452,0.224138,0.0,0.0,0.763158,0.0833333,0.0,1.0,0.530301,0.306273,0.524918,0.368504,0.332895,0.572864,0.402708,0.503464,0.343927,0.317973,0.325562,0.66958,0.642822,0.410666,0.409731
0.233333,0.488889,0.319149,0.105263,0.0,0,0.3125,0.097561,0.714689,0.24569,0.0,0.0,0.763158,0.0833333,0.0,1.0,0.613479,0.362371,0.567451,0.491985,0.552169,0.192673,0.658712,0.528762,0.36714,0.342289,0.33745,0.737603,0.63958,0.38916,0.256938
0.393333,0.466667,0.829787,0.105263,0.0,0,0.3125,0.097561,0.714689,0.24569,0.0,0.0,0.763158,0.0833333,0.0,1.0,0.225673,0.329201,0.393211,0.459381,0.491848,0.267286,0.406332,0.568442,0.44333,0.434435,0.481599,0.620993,0.457995,0.442926,0.39584
0.266667,0.466667,0.0851064,0.105263,0.0,0,0.3125,0.0,0.69774,0.275862,0.0,0.0,0.763158,0.0833333,0.0,1.0,0.811425,0.504186,0.464214,0.368956,0.261774,0.298011,0.402708,0.503464,0.641838,0.426756,0.450392,0.446076,0.454752,0.690252,0.409731
0.32,0.311111,0.070922,0.105263,0.0,0,0.3125,0.0243902,0.864407,0.340517,0.0,0.0,0.328947,0.583333,0.0,0.0,0.438014,0.363155,0.315284,0.368504,0.240472,0.273869,0.402708,0.503464,0.343927,0.458751,0.480113,0.300313,0.425569,0.523576,0.209711
0.286667,0.4,0.567376,0.105263,0.0,0,0.375,0.0731707,0.663842,0.241379,0.0,0.0,0.763158,0.0833333,0.0,1.0,0.577107,0.372427,0.380149,0.368504,0.348085,0.359296,0.402708,0.503464,0.343927,0.343569,0.347853,0.698733,0.642822,0.383783,0.409731
0.04,0.266667,0.262411,0.421053,0.0,0,0.375,0.146341,0.714689,0.24569,0.0,0.0,0.0,0.0,0.0,1.0,0.783355,0.205861,0.707883,0.683625,0.343207,0.335647,0.574207,0.506062,0.146187,0.499271,0.46102,0.449401,0.562646,0.464433,0.409731
0.28,1.0,0.624113,0.105263,0.0,0,0.125,0.097561,0.548023,0.0732759,0.0,0.0,0.328947,0.583333,0.0,1.0,0.201794,0.299103,0.386942,0.626519,0.612475,0.368582,0.896601,0.370543,0.239922,0.429316,0.419184,0.533534,0.555273,0.581245,0.43607
0.293333,0.377778,0.687943,0.105263,0.0,0,0.25,0.219512,0.861582,0.219828,0.0,0.0,0.0,0.0,0.0,1.0,0.50032,0.367052,0.527739,0.593572,0.533426,0.229298,0.403486,0.546815,0.232808,0.450785,0.424377,0.42864,0.676798,0.491316,0.209711
0.12,0.511111,0.631206,0.105263,0.0,0,0.25,0.195122,0.714689,0.24569,0.0,0.0,0.0,0.0,0.0,1.0,0.517955,0.32026,0.616017,0.479755,0.0850632,0.309084,0.50407,0.457542,0.0733741,0.458147,0.367168,0.504216,0.683519,0.42142,0.409731
0.313333,0.444444,0.375887,0.105263,0.0,0,0.375,0.0487805,0.661017,0.219828,0.0,0.0,0.763158,0.0833333,0.0,1.0,0.451304,0.281197,0.457527,0.559422,0.324939,0.283154,0.402708,0.503464,0.343927,0.495865,0.499432,0.504382,0.457995,0.496693,0.409731
0.4,0.266667,0.113475,0.789474,0.0,6,0.6875,0.0487805,1.0,0.24569,0.725275,0.175644,0.907895,0.416667,0.0,1.0,0.518585,0.409068,0.771312,0.642798,0.439151,0.507094,0.476598,0.336406,0.355943,0.492026,0.526181,0.446076,0.314191,0.38916,0.231936
0.14,0.444444,0.907801,0.105263,0.0,0,0.25,0.195122,0.714689,0.24569,0.0,0.0,0.328947,0.583333,0.0,1.0,0.693674,0.443459,0.468675,0.483605,0.360495,0.415544,0.481935,0.574064,0.438775,0.456191,0.466738,0.596699,0.519604,0.90369,0.64948
0.0466667,0.377778,0.0567376,0.105263,0.0,0,0.25,0.121951,0.714689,0.24569,0.0,0.0,0.0,0.0,0.0,1.0,0.42474,0.286759,0.376408,0.445894,0.50367,0.292513,0.608203,0.525649,0.245583,0.329385,0.261536,0.649476,0.786591,0.545083,0.409731
0.386667,0.488889,0.574468,0.105263,0.0,0,0.375,0.0731707,0.714689,0.24569,0.0,0.0,0.763158,0.0833333,0.0,1.0,0.729681,0.446487,0.30609,0.145725,0.138852,0.151525,0.517734,0.769056,0.286199,0.397321,0.438503,0.582122,0.55203,0.604226,0.654199
0.32,0.711111,0.560284,0.105263,0.0,0,0.1875,0.097561,0.748588,0.133621,0.0,0.0,0.763158,0.0833333,0.0,1.0,0.400682,0.419535,0.441909,0.368504,0.344868,0.286869,0.663266,0.503464,0.343927,0.330771,0.37906,0.640428,0.584456,0.313887,0.409731
0.306667,0.488889,0.347518,0.105263,0.0,0,0.3125,0.0731707,0.734463,0.232759,0.0,0.0,0.0,0.0,0.0,1.0,0.495221,0.191758,0.518408,0.415951,0.172122,0.288726,0.402708,0.503464,0.343927,0.525305,0.456167,0.406879,0.623388,0.34077,0.409731
0.806667,0.533333,0.0780142,0.105263,0.0,0,0.375,0.097561,0.714689,0.24569,0.0,0.0,0.763158,0.0833333,0.0,1.0,0.90487,0.276067,0.431801,0.228544,0.359189,0.147098,0.405486,0.658276,0.436954,0.381963,0.386491,0.63071,0.490421,0.819292,0.654199
0.113333,0.466667,0.638298,0.105263,0.0,0,0.25,0.146341,0.714689,0.24569,0.0,0.0,0.763158,0.0833333,0.0,1.0,0.70506,0.28392,0.361798,0.41592,0.26238,0.44748,0.303359,0.499348,0.262488,0.46515,0.486057,0.514099,0.490421,0.523576,0.409731
0.3,0.355556,0.680851,0.105263,0.0,0,0.3125,0.0243902,0.847458,0.280172,0.0,0.0,0.328947,0.583333,0.0,0.0,0.438014,0.359453,0.315284,0.368504,0.240472,0.229298,0.402708,0.503464,0.343927,0.563694,0.615345,0.319748,0.286138,0.744019,0.409731
0.0733333,0.333333,0.0496454,0.105263,0.0,0,0.4375,0.170732,0.714689,0.24569,0.0,0.0,0.763158,0.0833333,0.0,1.0,0.486278,0.417954,0.285799,0.284443,0.237747,0.30046,0.28037,0.585729,0.578749,0.490746,0.514293,0.421782,0.457995,0.711759,0.409731
0.333333,0.555556,0.638298,0.105263,0.0,0,0.25,0.121951,0.771186,0.142241,0.0,0.0,0.0,0.0,0.0,1.0,0.752359,0.198306,0.125077,0.368504,0.296762,0.299869,0.492154,0.503464,0.343927,0.35281,0.394734,0.774223,0.519071,0.249367,0.209711
0.293333,0.466667,0.333333,0.105263,0.0,0,0.375,0.0487805,0.641243,0.288793,0.0,0.0,0.328947,0.583333,0.0,1.0,0.452809,0.379792,0.227169,0.368279,0.261736,0.288726,0.402708,0.503464,0.65188,0.515062,0.512807,0.441217,0.425569,0.607193,0.371559
0.4,0.488889,0.262411,0.368421,0.0,1,0.375,0.292683,0.649718,0.323276,0.615385,0.175644,1.0,0.0833333,0.0,1.0,0.5065,0.851897,0.731465,0.412562,0.249658,0.559724,0.504679,0.395318,0.374053,0.652,0.63745,0.340524,0.383768,0.676842,0.629863
0.286667,0.488889,0.390071,0.105263,0.0,0,0.25,0.0731707,0.745763,0.293103,0.0,0.0,0.763158,0.0833333,0.0,1.0,0.764791,0.390555,0.528347,0.323772,0.13535,0.294297,0.525445,0.460228,0.345911,0.574041,0.538006,0.459937,0.265318,0.496693,0.409731
0.4,0.355556,0.70922,0.473684,0.0,1,0.8125,1.0,0.714689,0.383621,0.0,0.0,0.789474,0.0875,0.0,1.0,0.438014,0.244673,0.536657,0.378672,0.29211,0.368582,0.496043,0.202155,0.374053,0.526708,0.546392,0.555399,0.182375,0.660317,0.420587
0.133333,0.288889,0.446809,0.473684,0.0,1,0.8125,0.487805,0.714689,0.512931,0.0,0.0,0.789474,0.0875,0.0,1.0,0.438014,0.244673,0.315284,0.376412,0.302437,0.275726,0.480487,0.395426,0.374053,0.303256,0.311741,0.603987,0.312078,0.848059,0.420144
0.326667,0.466667,0.588652,0.105263,0.0,0,0.375,0.0731707,0.590395,0.24569,0.0,0.0,0.763158,0.0833333,0.0,1.0,0.447751,0.170027,0.425418,0.368504,0.152552,0.480008,0.402708,0.503464,0.343927,0.33589,0.349339,0.543252,0.613639,0.38916,0.409731
0.28,0.266667,0.567376,0.105263,0.0,0,0.25,0.097561,0.652542,0.202586,0.0,0.0,0.328947,0.583333,0.0,1.0,0.160734,0.266331,0.312345,0.301344,0.297735,0.554293,0.435375,0.492839,0.216007,0.385802,0.389463,0.63314,0.584456,0.083199,0.318362
0.313333,0.422222,0.574468,0.105263,0.0,0,0.3125,0.0243902,0.714689,0.25431,0.0,0.0,0.328947,0.583333,0.0,1.0,0.369048,0.334497,0.305075,0.368279,0.373211,0.290583,0.402708,0.503464,0.344596,0.39988,0.398379,0.545681,0.487178,0.520439,0.517047
0.293333,0.533333,0.907801,0.105263,0.0,0,0.375,0.097561,0.714689,0.24569,0.0,0.0,0.763158,0.0833333,0.0,1.0,0.469599,0.225005,0.267664,0.224711,0.179872,0.275789,0.363512,0.321226,0.561175,0.452352,0.477141,0.523817,0.457995,0.496693,0.46807
0.533333,0.0444444,0.148936,0.605263,0.0,1,0.0,0.0243902,0.248588,0.0215517,0.725275,0.156128,0.907895,1.0,1.0,0.0,0.5497,0.414992,0.771312,0.977406,0.843812,0.667729,0.674656,0.45392,0.474472,0.602726,0.612373,0.31094,0.305698,0.269664,0.285502
0.313333,0.422222,0.574468,0.105263,0.0,0,0.3125,0.0243902,0.714689,0.25431,0.0,0.0,0.763158,0.0833333,0.0,1.0,0.635075,0.170338,0.363796,0.368279,0.380476,0.290583,0.402708,0.503464,0.344596,0.283419,0.332992,0.650145,0.503391,0.27625,0.409731
0.333333,0.555556,0.638298,0.105263,0.0,0,0.25,0.121951,0.771186,0.142241,0.0,0.0,0.763158,0.0833333,0.0,1.0,0.346655,0.236945,0.351806,0.368504,0.213591,0.299869,0.492154,0.503464,0.343927,0.315414,0.364199,0.640428,0.613639,0.222484,0.209711
0.306667,0.555556,0.595745,0.105263,0.0,0,0.1875,0.121951,0.723164,0.137931,0.0,0.0,0.328947,0.583333,0.0,1.0,0.393778,0.399133,0.232193,0.534956,0.405785,0.286869,0.546598,0.643021,0.209296,0.428036,0.410268,0.650145,0.613639,0.621006,0.577262
0.126667,0.466667,0.943262,0.105263,0.0,0,0.25,0.243902,0.714689,0.24569,0.0,0.0,0.763158,0.0833333,0.0,1.0,0.64347,0.197361,0.263889,0.359692,0.121314,0.0876244,0.468236,0.629189,0.321381,0.480507,0.50389,0.538393,0.389901,0.357552,0.306094
0.286667,0.488889,0.0851064,0.105263,0.0,0,0.3125,0.0243902,0.748588,0.25431,0.0,0.0,0.763158,0.0833333,0.0,1.0,0.487433,0.338194,0.340972,0.368053,0.169077,0.296154,0.402708,0.503464,0.420915,0.33845,0.332992,0.484947,0.577971,0.507446,0.409731
0.3,0.511111,0.375887,0.105263,0.0,0,0.375,0.0731707,0.550847,0.262931,0.0,0.0,0.328947,0.583333,0.0,1.0,0.563765,0.297378,0.220187,0.368504,0.19059,0.480008,0.402708,0.503464,0.343927,0.362766,0.362713,0.635569,0.584456,0.704813,0.472585
0.12,0.466667,0.943262,0.105263,0.0,0,0.3125,0.219512,0.714689,0.24569,0.0,0.0,0.0,0.0,0.0,1.0,0.521165,0.263926,0.363419,0.189835,0.0122576,0.183474,0.250208,0.844434,0.459891,0.345319,0.349148,0.647671,0.80049,0.556647,0.713947
0.28,1.0,0.624113,0.105263,0.0,0,0.125,0.097561,0.548023,0.0732759,0.0,0.0,0.0,0.0,0.0,1.0,0.329394,0.231011,0.509426,0.548177,0.445223,0.368582,0.896601,0.507556,0.363527,0.321944,0.253096,0.792242,0.732647,0.491316,0.409731
0.3,0.377778,0.87234,0.105263,0.0,4,0.25,0.0243902,0.299435,0.323276,0.0,0.0,0.0,0.0,0.0,1.0,0.544984,0.375226,0.405304,0.605053,0.281867,0.693576,0.434939,0.706757,0.452663,0.482086,0.427483,0.440092,0.870349,0.416043,0.409731
0.286667,0.355556,0.617021,0.105263,0.0,0,0.3125,0.0731707,0.813559,0.237069,0.0,0.0,0.328947,0.583333,0.0,0.0,0.820726,0.244673,0.315284,0.368504,0.240472,0.229298,0.402708,0.503464,0.343927,0.408839,0.411754,0.518958,0.555273,0.45368,0.209711
0.766667,0.511111,0.879433,0.105263,0.0,0,0.25,0.0731707,0.714689,0.24569,0.0,0.0,0.763158,0.0833333,0.0,1.0,0.539141,0.152801,0.666233,0.482786,0.49408,0.493676,0.518806,0.353553,0.79202,0.532979,0.603457,0.47037,0.28938,0.604226,0.456957
0.24,0.755556,0.631206,0.105263,0.0,0,0.125,0.121951,0.680791,0.12069,0.0,0.0,0.0,0.0,0.0,1.0,0.498246,0.418742,0.497014,0.678514,0.3792,0.66572,0.741044,0.571613,0.305328,0.368369,0.449848,0.570355,0.349712,0.485939,0.409731