File: 4 - Dataset/clustering_weld_data.csv
Carbon concentration (ppm),Silicon concentration (ppm),Manganese concentration (ppm),Sulphur concentration (ppm),Phosphorus concentration (ppm),Nickel concentration (ppm),Chromium concentration (ppm),Molybdenum concentration (ppm),Vanadium concentration (ppm),Copper concentration (ppm),Oxygen concentration (ppm),Titanium concentration (ppm),Nitrogen concentration (ppm),Aluminium concentration (ppm),Boron concentration (ppm),Niobium concentration (ppm),Current (A),Voltage (V),AC or DC,Electrode positive or negative,Heat input (kJ/mm),Interpass temperature (deg C),Type of weld,Post weld heat treatment temperature (deg C),Post weld heat treatment time (hours),Yield strength (MPa),Ultimate tensile strength (MPa),Elongation (%),Reduction of Area (%),Charpy temperature (deg C),Charpy impact toughness (J)
370.0,3000.0,6500.0,80.0,120.0,0.0,,,,,,,,,,,170.0,21.0,0.0,1,1.0,200.0,0,250.0,14.0,392.0,466.0,31.9,80.6,,
370.0,3100.0,10300.0,70.0,140.0,0.0,,,,,,,,,,,170.0,21.0,0.0,1,1.0,200.0,0,0.0,0.0,,,,,-48.0,100.0
440.0,3500.0,14300.0,70.0,140.0,0.0,,,,,,,,,,,170.0,21.0,0.0,1,1.0,200.0,0,580.0,2.0,436.0,529.0,31.6,78.8,-58.0,100.0
390.0,3200.0,6600.0,60.0,110.0,5300.0,,,,,,,,,,,170.0,21.0,0.0,1,1.0,200.0,0,250.0,14.0,411.0,484.0,32.6,79.3,,
410.0,3300.0,10100.0,60.0,110.0,4900.0,,,,,,,,,,,170.0,21.0,0.0,1,1.0,200.0,0,580.0,2.0,426.0,506.0,31.6,79.7,,
490.0,3300.0,18500.0,60.0,140.0,5100.0,,,,,,,,,,,170.0,21.0,0.0,1,1.0,200.0,0,0.0,0.0,,,,,,
380.0,3100.0,6300.0,70.0,120.0,10900.0,,,,,,,,,,,170.0,21.0,0.0,1,1.0,200.0,0,580.0,2.0,411.0,493.0,33.6,79.7,-40.0,100.0
490.0,3500.0,13700,70.0,130.0,10600.0,,,,,,,,,,,170.0,21.0,0.0,1,1.0,200.0,0,250.0,14.0,498.0,569.0,28.4,78.8,,
530.0,3500.0,18300.0,70.0,120.0,10600.0,,,,,,,,,,,170.0,21.0,0.0,1,1.0,200.0,0,0.0,0.0,,,,,-39.0,100.0
410.0,3000.0,6200.0,70.0,100.0,23800.0,,,,,,,,,,,170.0,21.0,0.0,1,1.0,200.0,0,580.0,2.0,431.0,518.0,32.2,76.9,-41.0,100.0
490.0,3200.0,14100.0,70.0,140.0,23200.0,,,,,,,,,,,170.0,21.0,0.0,1,1.0,200.0,0,250.0,14.0,567.0,635.0,23.6,72.7,,
460.0,3200.0,18100.0,70.0,150.0,23300.0,,,,,,,,,,,170.0,21.0,0.0,1,1.0,200.0,0,0.0,0.0,,,,,-30.0,100.0
370.0,3000.0,6500.0,90.0,110.0,35000.0,,,,,,,,,,,170.0,21.0,0.0,1,1.0,200.0,0,580.0,2.0,482.0,560.0,31.4,48.8,-63.0,100.0
480.0,3300.0,14000.0,70.0,130.0,34700.0,,,,,,,,,,,170.0,21.0,0.0,1,1.0,200.0,0,250.0,14.0,621.0,682.0,25.4,72.9,,
510.0,3600.0,17900.0,70.0,130.0,34200.0,,,,,,,,,,,170.0,21.0,0.0,1,1.0,200.0,0,0.0,0.0,,,,,24.0,100.0
750.0,3600.0,14800.0,70.0,60.0,,,,,1100.0,390.0,40.0,,,,,170.0,21.0,0.0,1,1.0,150.0,0,0.0,0.0,502.0,578.0,27.6,77.0,,
760.0,3300.0,14800.0,70.0,60.0,,,,,3500.0,400.0,40.0,,,,,170.0,21.0,0.0,1,1.0,150.0,0,0.0,0.0,504.0,586.0,27.6,77.0,,
760.0,3600.0,14900.0,60.0,60.0,,,,,14000.0,410.0,40.0,,,,,170.0,21.0,0.0,1,1.0,150.0,0,0.0,0.0,568.0,647.0,27.4,73.0,,
740.0,2900.0,14900.0,60.0,130.0,,,,,,471.0,5.0,72.0,6.0,,,170.0,21.0,0.0,1,1.0,200.0,0,0.0,0.0,,,,,-19.0,100.0
760.0,3400,13600,50.0,110.0,,,,,,476.0,5.0,57.0,150.0,,,170.0,21.0,0.0,1,1.0,200.0,0,250.0,14.0,437.0,527.0,24.6,78.9,,
790.0,3900.0,13700,50.0,110.0,,,,,,446.0,5.0,47.0,250.0,,,170.0,21.0,0.0,1,1.0,200.0,0,0.0,0.0,,,,,-56.0,28.0
780.0,4400.0,14000.0,40.0,110.0,,,,,,436.0,5.0,44.0,420.0,,,170.0,21.0,0.0,1,1.0,200.0,0,0.0,0.0,,,,,-30.0,100.0
690,3000.0,13600,70.0,90.0,,,,,,432.0,37.0,68.0,5.0,,,170.0,21.0,0.0,1,1.0,200.0,0,250.0,14.0,468.0,529.0,32.6,80.7,,
800.0,3300.0,14100.0,60.0,90.0,,,,,,432.0,43.0,55.0,78.0,,,170.0,21.0,0.0,1,1.0,200.0,0,0.0,0.0,,,,,-77.0,28.0
760.0,3700.0,13600,50.0,90.0,,,,,,422.0,36.0,53.0,190.0,,,170.0,21.0,0.0,1,1.0,200.0,0,0.0,0.0,,,,,-58.0,100.0
760.0,5100.0,13000.0,50.0,80.0,,,,,,423.0,43.0,48.0,490.0,,,170.0,21.0,0.0,1,1.0,200.0,0,250.0,14.0,485.0,560.0,25.2,78.9,,
790.0,5700,13200.0,40.0,80.0,,,,,,422.0,38.0,52.0,610.0,,,170.0,21.0,0.0,1,1.0,200.0,0,0.0,0.0,,,,,-74.0,28.0
740.0,3200.0,15000.0,60.0,60.0,,,,,,375.0,99.0,89.0,8.0,,,170.0,21.0,0.0,1,1.0,200.0,0,0.0,0.0,,,,,-52.0,100.0
710,3900.0,13600,50.0,90.0,,,,,,381.0,92.0,52.0,160.0,,,170.0,21.0,0.0,1,1.0,200.0,0,250.0,14.0,481.0,545.0,30.6,81.4,,
690,4500.0,13600,50.0,80.0,,,,,,374.0,63.0,44.0,280.0,,,170.0,21.0,0.0,1,1.0,200.0,0,0.0,0.0,,,,,-68.0,28.0
690,5100.0,13900,40.0,80.0,,,,,,379.0,69.0,41.0,480.0,,,170.0,21.0,0.0,1,1.0,200.0,0,0.0,0.0,,,,,-54.0,100.0
810.0,3400,15400.0,70.0,80.0,,,,,,312.0,180.0,80.0,3.0,,,170.0,21.0,0.0,1,1.0,200.0,0,250.0,14.0,502.0,555.0,26.6,78.9,,
720.0,2400.0,13200.0,60.0,80.0,,,,,,397.0,180.0,68.0,47.0,,,170.0,21.0,0.0,1,1.0,200.0,0,0.0,0.0,,,,,-54.0,28.0
720.0,3400,13300.0,60.0,80.0,,,,,,427.0,190.0,57.0,150.0,,,170.0,21.0,0.0,1,1.0,200.0,0,0.0,0.0,,,,,-52.0,100.0
660.0,4600.0,14100.0,40.0,90.0,,,,,,407.0,240.0,49.0,440.0,,,170.0,21.0,0.0,1,1.0,200.0,0,250.0,14.0,522.0,580.0,24.0,76.0,,
660.0,4400.0,13300.0,40.0,80.0,,,,,,454.0,240.0,49.0,680.0,,,170.0,21.0,0.0,1,1.0,200.0,0,0.0,0.0,,,,,-76.0,28.0
690,4300.0,14900.0,40.0,50.0,,,,,,294.0,460.0,77.0,1.0,,,170.0,21.0,0.0,1,1.0,200.0,0,0.0,0.0,,,,,-60.0,100.0
710,4200.0,13900,70.0,50.0,,,,,,446.0,420.0,65.0,150.0,,,170.0,21.0,0.0,1,1.0,200.0,0,250.0,14.0,531.0,587.0,25.2,78.0,,
710,5200.0,14400.0,50.0,50.0,,,,,,466.0,460.0,67.0,300.0,,,170.0,21.0,0.0,1,1.0,200.0,0,0.0,0.0,,,,,-65.0,28.0
690,5400.0,14100.0,50.0,50.0,,,,,,439.0,460.0,58.0,420.0,,,170.0,21.0,0.0,1,1.0,200.0,0,0.0,0.0,,,,,-43.0,100.0
900.0,1800.0,9800.0,80.0,120.0,,89000.0,10000.0,2200.0,,642.0,,460.0,,3.0,520.0,180.0,34.0,0.0,1,1.0,175.0,0,750.0,8.0,542.0,697.0,18.8,65.3,-24.0,28.0
880.0,1700,10300.0,70.0,130.0,,91000.0,10100.0,2300.0,,604.0,,460.0,,17.0,530.0,180.0,34.0,0.0,1,1.0,175.0,0,750.0,8.0,574.0,723.0,17.1,59.1,-17.0,50.0
910.0,2000.0,10400.0,70.0,130.0,,90200.0,10100.0,2400.0,,591.0,,480.0,,32.0,620.0,180.0,34.0,0.0,1,1.0,175.0,0,750.0,8.0,642.0,778.0,16.8,59.8,53.0,100.0
940.0,1700,10000.0,80.0,120.0,,89900.0,10300.0,2100.0,,636.0,,160.0,,3.0,520.0,180.0,34.0,0.0,1,1.0,175.0,0,750.0,8.0,558.0,705.0,20.8,64.5,-14.0,28.0
860,2000.0,10100.0,70.0,120.0,,89000.0,10100.0,2100.0,,596.0,,160.0,,19.0,510.0,180.0,34.0,0.0,1,1.0,175.0,0,750.0,8.0,569.0,709.0,17.4,62.7,-9.0,50.0
860,2000.0,10400.0,80.0,130.0,,89800.0,10100.0,2200.0,,567.0,,160.0,,36.0,560.0,180.0,34.0,0.0,1,1.0,175.0,0,750.0,8.0,609.0,743.0,16.9,61.9,38.0,100.0
370.0,3000.0,6500.0,80.0,120.0,,0.0,,,,,,,,,,170.0,21.0,0.0,1,1.0,200.0,0,250.0,14.0,392.0,466.0,31.9,80.6,,
370.0,3100.0,10300.0,70.0,140.0,,0.0,,,,,,,,,,170.0,21.0,0.0,1,1.0,200.0,0,580.0,2.0,402.0,490.0,31.0,80.6,-44.0,100.0
440.0,3500.0,14300.0,70.0,140.0,,0.0,,,,,,,,,,170.0,21.0,0.0,1,1.0,200.0,0,0.0,0.0,,,,,-52.0,100.0
380.0,3000.0,6500.0,70.0,140.0,,2200.0,,,,,,,,,,170.0,21.0,0.0,1,1.0,200.0,0,250.0,14.0,422.0,496.0,30.4,78.8,,
410.0,3200.0,10100.0,80.0,130.0,,2400.0,,,,,,,,,,170.0,21.0,0.0,1,1.0,200.0,0,0.0,0.0,,,,,,
480.0,3300.0,18500.0,70.0,130.0,,2600.0,,,,,,,,,,170.0,21.0,0.0,1,1.0,200.0,0,580.0,2.0,535.0,620.0,27.0,74.0,,
400.0,3300.0,6000.0,60.0,100.0,,5100.0,,,,,,,,,,170.0,21.0,0.0,1,1.0,200.0,0,0.0,0.0,,,,,-17.0,100.0
470.0,3300.0,14200.0,60.0,100.0,,5300.0,,,,,,,,,,170.0,21.0,0.0,1,1.0,200.0,0,250.0,14.0,543.0,603.0,28.2,77.0,,
510.0,3300.0,18300.0,60.0,130.0,,5200.0,,,,,,,,,,170.0,21.0,0.0,1,1.0,200.0,0,580.0,2.0,570.0,650.0,24.0,68.7,-2.0,100.0
410.0,3000.0,5900.0,90.0,110.0,,10000.0,,,,,,,,,,170.0,21.0,0.0,1,1.0,200.0,0,0.0,0.0,,,,,-10.0,100.0
480.0,3300.0,13700,80.0,130.0,,10800.0,,,,,,,,,,170.0,21.0,0.0,1,1.0,200.0,0,250.0,14.0,626.0,676.0,24.4,70.9,,
520.0,3300.0,18100.0,70.0,130.0,,11000.0,,,,,,,,,,170.0,21.0,0.0,1,1.0,200.0,0,580.0,2.0,592.0,671.0,22.8,72.0,28.0,100.0
410.0,2700.0,5900.0,90.0,110.0,,23400.0,,,,,,,,,,170.0,21.0,0.0,1,1.0,200.0,0,0.0,0.0,,,,,9.0,100.0
500.0,3100.0,12900.0,80.0,110.0,,23200.0,,,,,,,,,,170.0,21.0,0.0,1,1.0,200.0,0,250.0,14.0,738.0,789.0,20.0,67.0,,
540.0,3300.0,17200.0,70.0,140.0,,23600.0,,,,,,,,,,170.0,21.0,0.0,1,1.0,200.0,0,580.0,2.0,697.0,757.0,19.6,69.7,,
690,3000.0,13600,70.0,90.0,,,,5.0,,432.0,37.0,67.0,5.0,5.0,5.0,170.0,21.0,0.0,1,1.0,200.0,0,0.0,0.0,,,,,-72.0,100.0
730.0,3300.0,13900,70.0,80.0,,,,5.0,,427.0,39.0,66.0,20.0,5.0,5.0,170.0,21.0,0.0,1,1.0,200.0,0,0.0,0.0,,,,,-95.0,28.0
780.0,3200.0,13900,70.0,90.0,,,,5.0,,436.0,42.0,66.0,44.0,5.0,5.0,170.0,21.0,0.0,1,1.0,200.0,0,0.0,0.0,,,,,-88.0,28.0
800.0,3300.0,14100.0,60.0,90.0,,,,5.0,,432.0,43.0,61.0,78.0,5.0,5.0,170.0,21.0,0.0,1,1.0,200.0,0,250.0,14.0,478.0,540.0,31.2,80.7,,
800.0,3300.0,14100.0,60.0,90.0,,,,5.0,,432.0,43.0,61.0,78.0,5.0,5.0,170.0,21.0,0.0,1,1.0,200.0,0,580.0,2.0,391.0,504.0,31.8,78.9,-68.0,100.0
800.0,3700.0,14200.0,60.0,90.0,,,,5.0,,439.0,43.0,54.0,120.0,5.0,5.0,170.0,21.0,0.0,1,1.0,200.0,0,580.0,2.0,397.0,518.0,31.0,79.8,-91.0,28.0
760.0,3700.0,13600,50.0,90.0,,,,5.0,,422.0,36.0,54.0,190.0,5.0,5.0,170.0,21.0,0.0,1,1.0,200.0,0,0.0,0.0,,,,,-58.0,100.0
780.0,4400.0,13100.0,50.0,80.0,,,,5.0,,431.0,36.0,52.0,340.0,5.0,5.0,170.0,21.0,0.0,1,1.0,200.0,0,0.0,0.0,,,,,-88.0,28.0
760.0,5100.0,13000.0,50.0,80.0,,,,5.0,,423.0,43.0,50.0,490.0,5.0,5.0,170.0,21.0,0.0,1,1.0,200.0,0,250.0,14.0,485.0,560.0,25.2,78.9,,
760.0,5100.0,13000.0,50.0,80.0,,,,5.0,,423.0,43.0,50.0,490.0,5.0,5.0,170.0,21.0,0.0,1,1.0,200.0,0,580.0,2.0,417.0,528.0,29.0,78.9,-69.0,100.0
790.0,5700,13200.0,40.0,80.0,,,,5.0,,422.0,38.0,48.0,610.0,5.0,5.0,170.0,21.0,0.0,1,1.0,200.0,0,580.0,2.0,443.0,550.0,29.4,76.0,-88.0,28.0
730.0,3500.0,6400.0,50.0,40.0,,,,3.0,,428.0,38.0,77.0,5.0,5.0,5.0,170.0,21.0,0.0,1,1.0,200.0,0,580.0,2.0,329.0,447.0,36.4,80.5,-54.0,100.0
710,4000.0,6400.0,80.0,60.0,,,,435.0,,411.0,36.0,88.0,5.0,5.0,5.0,170.0,21.0,0.0,1,1.0,200.0,0,250.0,14.0,478.0,546.0,28.2,78.0,,
740.0,3600.0,6300.0,80.0,50.0,,,,600.0,,432.0,31.0,75.0,5.0,5.0,5.0,170.0,21.0,0.0,1,1.0,200.0,0,0.0,0.0,,,,,-42.0,100.0
720.0,3600.0,6400.0,80.0,60.0,,,,815.0,,436.0,34.0,84.0,5.0,5.0,5.0,170.0,21.0,0.0,1,1.0,200.0,0,580.0,2.0,483.0,576.0,25.2,76.0,-22.0,100.0
760.0,3400,10100.0,70.0,70.0,,,,215.0,,426.0,37.0,75.0,5.0,5.0,5.0,170.0,21.0,0.0,1,1.0,200.0,0,250.0,14.0,456.0,534.0,25.0,79.6,,
780.0,3100.0,10400.0,70.0,60.0,,,,440.0,,429.0,32.0,48.0,5.0,5.0,5.0,170.0,21.0,0.0,1,1.0,200.0,0,0.0,0.0,,,,,-63.0,100.0
760.0,3300.0,10400.0,70.0,60.0,,,,610.0,,429.0,31.0,70.0,5.0,5.0,5.0,170.0,21.0,0.0,1,1.0,200.0,0,580.0,2.0,493.0,569.0,27.0,77.0,-44.0,100.0
770.0,3100.0,13300.0,70.0,50.0,,,,4.0,,419.0,38.0,80.0,5.0,5.0,6.0,170.0,21.0,0.0,1,1.0,200.0,0,250.0,14.0,463.0,541.0,27.1,75.9,,
720.0,3300.0,12200.0,80.0,60.0,,,,190.0,,447.0,29.0,85.0,5.0,5.0,5.0,170.0,21.0,0.0,1,1.0,200.0,0,0.0,0.0,,,,,-66.0,100.0
770.0,2600.0,13600,70.0,70.0,,,,425,,410.0,29.0,79.0,5.0,5.0,5.0,170.0,21.0,0.0,1,1.0,200.0,0,580.0,2.0,526.0,594.0,26.0,76.0,-62.0,100.0
760.0,2600.0,13600,70.0,60.0,,,,1005.0,,407.0,29.0,83.0,5.0,5.0,5.0,170.0,21.0,0.0,1,1.0,200.0,0,250.0,14.0,599.0,638.0,20.8,74.0,,
760.0,2900.0,17400.0,80.0,60.0,,,,4.0,,415.0,35.0,92.0,5.0,5.0,6.0,170.0,21.0,0.0,1,1.0,200.0,0,0.0,0.0,,,,,-62.0,100.0
770.0,2600.0,17300.0,70.0,80.0,,,,235.0,,423.0,27.0,72.0,5.0,5.0,5.0,170.0,21.0,0.0,1,1.0,200.0,0,580.0,2.0,523.0,602.0,25.6,75.0,-59.0,100.0
760.0,2500.0,17200.0,50.0,80.0,,,,605.0,,405.0,25.0,86.0,5.0,5.0,5.0,170.0,21.0,0.0,1,1.0,200.0,0,250.0,14.0,589.0,650.0,21.6,75.0,,
800.0,2600.0,17400.0,70.0,80.0,,,,830.0,,411.0,25.0,90.0,5.0,5.0,5.0,170.0,21.0,0.0,1,1.0,200.0,0,0.0,0.0,,,,,-61.0,100.0
730.0,3500.0,6400.0,50.0,40.0,,,,3.0,,428.0,38.0,77.0,5.0,5.0,5.0,170.0,21.0,0.0,1,1.0,200.0,0,580.0,2.0,329.0,447.0,36.4,80.5,-55.0,100.0
750.0,3300.0,6200.0,70.0,50.0,,,,3.0,,429.0,42.0,85.0,5.0,5.0,220.0,170.0,21.0,0.0,1,1.0,200.0,0,250.0,14.0,474.0,553.0,26.8,80.7,,
700,3300.0,6400.0,70.0,40.0,,,,7.0,,413.0,42.0,85.0,5.0,5.0,450.0,170.0,21.0,0.0,1,1.0,200.0,0,0.0,0.0,,,,,-7.0,100.0
740.0,3300.0,6400.0,80.0,60.0,,,,3.0,,460.0,39.0,110.0,5.0,5.0,880.0,170.0,21.0,0.0,1,1.0,200.0,0,580.0,2.0,544.0,621.0,22.6,71.9,18.0,100.0
780.0,3500.0,10200.0,70.0,50.0,,,,4.0,,368.0,36.0,83.0,5.0,5.0,120.0,170.0,21.0,0.0,1,1.0,200.0,0,250.0,14.0,480.0,557.0,25.4,75.0,,
740.0,3400,10000.0,70.0,60.0,,,,5.0,,424.0,37.0,86.0,5.0,5.0,255.0,170.0,21.0,0.0,1,1.0,200.0,0,0.0,0.0,,,,,-38.0,100.0
740.0,3300.0,9900.0,80.0,60.0,,,,4.0,,393.0,37.0,88.0,5.0,5.0,465.0,170.0,21.0,0.0,1,1.0,200.0,0,580.0,2.0,540.0,616.0,22.4,75.0,-20.0,100.0
770.0,3100.0,13300.0,70.0,50.0,,,,4.0,,419.0,38.0,80.0,5.0,5.0,6.0,170.0,21.0,0.0,1,1.0,200.0,0,250.0,14.0,463.0,541.0,27.1,75.9,,
790.0,3300.0,13700,70.0,60.0,,,,4.0,,417.0,34.0,97.0,5.0,5.0,105.0,170.0,21.0,0.0,1,1.0,200.0,0,0.0,0.0,,,,,-55.0,100.0
760.0,3000.0,13600,80.0,60.0,,,,4.0,,370.0,33.0,84.0,5.0,5.0,235.0,170.0,21.0,0.0,1,1.0,200.0,0,580.0,2.0,539.0,607.0,25.0,76.0,-41.0,100.0
760.0,3000.0,13600,60.0,70.0,,,,5.0,,432.0,33.0,91.0,5.0,5.0,940.0,170.0,21.0,0.0,1,1.0,200.0,0,250.0,14.0,610.0,685.0,20.6,71.9,,
760.0,2900.0,17400.0,80.0,60.0,,,,4.0,,415.0,35.0,92.0,5.0,5.0,6.0,170.0,21.0,0.0,1,1.0,200.0,0,0.0,0.0,,,,,-62.0,100.0
770.0,3200.0,17700.0,70.0,60.0,,,,4.0,,418.0,31.0,89.0,5.0,5.0,125.0,170.0,21.0,0.0,1,1.0,200.0,0,580.0,2.0,524.0,605.0,24.4,74.0,-61.0,100.0
770.0,2900.0,17700.0,80.0,90.0,,,,4.0,,432.0,31.0,97.0,5.0,5.0,450.0,170.0,21.0,0.0,1,1.0,200.0,0,250.0,14.0,606.0,660.0,22.0,74.0,,
790.0,2900.0,17900.0,60.0,70.0,,,,4.0,,406.0,33.0,105.0,5.0,5.0,895.0,170.0,21.0,0.0,1,1.0,200.0,0,0.0,0.0,,,,,-6.0,100.0
600.0,2500.0,11900.0,80.0,70.0,,,,,,353.0,,110.0,,,,180.0,34.0,1.0,0,2.0,200.0,0,250.0,14.0,443.0,508.0,30.4,82.4,,
480.0,3100.0,13400.0,80.0,80.0,,,,,,371.0,,75.0,,,,180.0,34.0,0.0,1,1.0,200.0,0,250.0,14.0,433.0,504.0,31.0,82.3,,
690,5300.0,11700.0,80.0,140.0,,,,,,365.0,,120.0,,,,180.0,34.0,0.0,1,1.0,200.0,0,250.0,14.0,487.0,555.0,31.4,78.8,,
430.0,3000.0,6900,60.0,70.0,,,,,,,,,,,,170.0,21.0,0.0,1,1.0,200.0,0,580.0,2.0,373.0,448.0,34.4,83.0,-50.0,53.0
420.0,3100.0,9800.0,60.0,70.0,,,,,,,,,,,,170.0,21.0,0.0,1,1.0,200.0,0,580.0,2.0,392.0,476.0,34.4,80.6,-70.0,21.0
420.0,3100.0,9800.0,60.0,70.0,,,,,,,,,,,,170.0,21.0,0.0,1,1.0,200.0,0,580.0,2.0,392.0,476.0,34.4,80.6,-20.0,220.0
450.0,3100.0,13900,50.0,70.0,,,,,,,,,,,,170.0,21.0,0.0,1,1.0,200.0,0,580.0,2.0,414.0,502.0,31.0,80.6,-50.0,129.0
450.0,2900.0,18300.0,50.0,80.0,,,,,,,,,,,,170.0,21.0,0.0,1,1.0,200.0,0,580.0,2.0,444.0,525.0,29.8,79.9,-70.0,36.0
450.0,2900.0,18300.0,50.0,80.0,,,,,,,,,,,,170.0,21.0,0.0,1,1.0,200.0,0,580.0,2.0,444.0,525.0,29.8,79.9,-20.0,203.0
580.0,3300.0,6300.0,70.0,70.0,,,,,,,,,,,,170.0,21.0,0.0,1,1.0,200.0,0,580.0,2.0,386.0,465.0,33.4,78.8,-40.0,78.0
650.0,3400,9700.0,70.0,80.0,,,,,,,,,,,,170.0,21.0,0.0,1,1.0,200.0,0,580.0,2.0,418.0,500.0,35.0,80.6,-60.0,45.0
650.0,3400,9700.0,70.0,80.0,,,,,,,,,,,,170.0,21.0,0.0,1,1.0,200.0,0,580.0,2.0,418.0,500.0,35.0,80.6,20.0,220.0
660.0,3500.0,13600,70.0,80.0,,,,,,,,,,,,170.0,21.0,0.0,1,1.0,200.0,0,580.0,2.0,455.0,540.0,31.2,77.9,-40.0,165.0
740.0,3600.0,18000.0,80.0,80.0,,,,,,,,,,,,170.0,21.0,0.0,1,1.0,200.0,0,580.0,2.0,504.0,594.0,26.2,75.0,-60.0,55.0
740.0,3600.0,18000.0,80.0,80.0,,,,,,,,,,,,170.0,21.0,0.0,1,1.0,200.0,0,580.0,2.0,504.0,594.0,26.2,75.0,20.0,188.0
890.0,3500.0,6800,80.0,80.0,,,,,,,,,,,,170.0,21.0,0.0,1,1.0,200.0,0,580.0,2.0,394.0,499.0,34.2,78.8,-40.0,95.0
950.0,3600.0,10500.0,70.0,80.0,,,,,,,,,,,,170.0,21.0,0.0,1,1.0,200.0,0,580.0,2.0,435.0,546.0,34.0,77.0,-60.0,34.0
950.0,3600.0,10500.0,70.0,80.0,,,,,,,,,,,,170.0,21.0,0.0,1,1.0,200.0,0,580.0,2.0,435.0,546.0,34.0,77.0,20.0,220.0
880.0,3400,13300.0,80.0,70.0,,,,,,,,,,,,170.0,21.0,0.0,1,1.0,200.0,0,580.0,2.0,461.0,568.0,28.6,77.9,-40.0,155.0
890.0,3300.0,16900.0,70.0,80.0,,,,,,,,,,,,170.0,21.0,0.0,1,1.0,200.0,0,580.0,2.0,490.0,597.0,30.2,75.0,-60.0,74.0
890.0,3300.0,16900.0,70.0,80.0,,,,,,,,,,,,170.0,21.0,0.0,1,1.0,200.0,0,580.0,2.0,490.0,597.0,30.2,75.0,20.0,188.0
1510.0,3600.0,6300.0,80.0,80.0,,,,,,,,,,,,170.0,21.0,0.0,1,1.0,200.0,0,580.0,2.0,449.0,533.0,30.6,76.0,-20.0,131.0
1470.0,3600.0,10200.0,70.0,70.0,,,,,,,,,,,,170.0,21.0,0.0,1,1.0,200.0,0,580.0,2.0,482.0,576.0,29.4,76.9,-50.0,63.0
1470.0,3500.0,13800,70.0,70.0,,,,,,,,,,,,170.0,21.0,0.0,1,1.0,200.0,0,580.0,2.0,513.0,623.0,27.4,72.9,-70.0,38.0
1470.0,3500.0,13800,70.0,70.0,,,,,,,,,,,,170.0,21.0,0.0,1,1.0,200.0,0,580.0,2.0,513.0,623.0,27.4,72.9,-20.0,150.0
1450.0,3500.0,17600.0,60.0,70.0,,,,,,,,,,,,170.0,21.0,0.0,1,1.0,200.0,0,580.0,2.0,567.0,679.0,24.0,69.8,-50.0,42.0
740.0,3300.0,14500.0,50.0,50.0,,,,,,408.0,6.0,90.0,,,,170.0,21.0,0.0,1,1.0,200.0,4,250.0,14.0,463.0,537.0,31.2,78.8,,
730.0,3400,14900.0,40.0,70.0,,,,,,396.0,16.0,84.0,,,,170.0,21.0,0.0,1,1.0,200.0,4,0.0,0.0,,,,,-85.0,28.0
710,3600.0,14600.0,40.0,60.0,,,,,,400.0,22.0,85.0,,,,170.0,21.0,0.0,1,1.0,200.0,4,0.0,0.0,,,,,-65.0,100.0
700,3200.0,14800.0,50.0,60.0,,,,,,373.0,55.0,75.0,,,,170.0,21.0,0.0,1,1.0,200.0,4,250.0,14.0,488.0,549.0,32.4,78.8,,
680.0,3200.0,13800,40.0,50.0,,,,,,376.0,77.0,74.0,,,,170.0,21.0,0.0,1,1.0,200.0,4,0.0,0.0,,,,,-68.0,28.0
680.0,3500.0,15100.0,60.0,60.0,,,,,,351.0,100.0,87.0,,,,170.0,21.0,0.0,1,1.0,200.0,4,0.0,0.0,,,,,-47.0,100.0
700,4800.0,16400.0,50.0,60.0,,,,,,290.0,210.0,102.0,,,,170.0,21.0,0.0,1,1.0,200.0,4,250.0,14.0,515.0,592.0,27.2,78.9,,
750.0,2900.0,17500.0,60.0,50.0,,,,,,272.0,255.0,96.0,,,,170.0,21.0,0.0,1,1.0,200.0,4,0.0,0.0,,,,,-80.0,28.0
740.0,3500.0,6300.0,90.0,70.0,,,,5.0,,472.0,8.0,66.0,5.0,5.0,5.0,170.0,21.0,0.0,1,1.0,200.0,0,580.0,2.0,333.0,450.0,30.4,78.9,-53.0,100.0
750.0,3500.0,6600.0,90.0,70.0,,,,5.0,,396.0,96.0,71.0,5.0,5.0,5.0,170.0,21.0,0.0,1,1.0,200.0,0,250.0,14.0,396.0,492.0,30.2,78.0,,
760.0,3800.0,6700.0,90.0,70.0,,,,5.0,,362.0,160.0,70.0,5.0,5.0,5.0,170.0,21.0,0.0,1,1.0,200.0,0,0.0,0.0,,,,,-36.0,100.0
780.0,4400.0,7100.0,60.0,80.0,,,,5.0,,306.0,225.0,76.0,5.0,5.0,5.0,170.0,21.0,0.0,1,1.0,200.0,0,580.0,2.0,381.0,484.0,31.6,78.0,-51.0,100.0
760.0,3500.0,10100.0,80.0,50.0,,,,5.0,,401.0,41.0,74.0,5.0,5.0,5.0,170.0,21.0,0.0,1,1.0,200.0,0,250.0,14.0,443.0,522.0,31.1,77.0,,
750.0,3100.0,10300.0,80.0,70.0,,,,5.0,,394.0,92.0,79.0,5.0,5.0,5.0,170.0,21.0,0.0,1,1.0,200.0,0,0.0,0.0,,,,,-53.0,100.0
750.0,3500.0,10500.0,80.0,70.0,,,,5.0,,361.0,140.0,82.0,5.0,5.0,5.0,170.0,21.0,0.0,1,1.0,200.0,0,580.0,2.0,398.0,488.0,32.2,80.7,-54.0,100.0
750.0,3000.0,13100.0,80.0,60.0,,,,5.0,,441.0,5.0,81.0,5.0,5.0,5.0,170.0,21.0,0.0,1,1.0,200.0,0,250.0,14.0,420.0,523.0,26.4,77.0,,
770.0,3200.0,13300.0,70.0,50.0,,,,5.0,,422.0,36.0,83.0,5.0,5.0,5.0,170.0,21.0,0.0,1,1.0,200.0,0,0.0,0.0,,,,,-68.0,100.0
730.0,3000.0,13200.0,80.0,70.0,,,,5.0,,401.0,75.0,77.0,5.0,5.0,5.0,170.0,21.0,0.0,1,1.0,200.0,0,580.0,2.0,419.0,507.0,33.4,80.7,-61.0,100.0
800.0,3900.0,13700,70.0,60.0,,,,5.0,,320.0,215.0,90.0,5.0,5.0,5.0,170.0,21.0,0.0,1,1.0,200.0,0,250.0,14.0,485.0,559.0,28.0,80.7,,
770.0,2800,17900.0,70.0,60.0,,,,5.0,,439.0,7.0,82.0,5.0,5.0,5.0,170.0,21.0,0.0,1,1.0,200.0,0,0.0,0.0,,,,,-5.0,100.0
780.0,3100.0,17500.0,70.0,60.0,,,,5.0,,417.0,36.0,94.0,5.0,5.0,5.0,170.0,21.0,0.0,1,1.0,200.0,0,580.0,2.0,414.0,518.0,29.2,78.4,-71.0,100.0
750.0,3200.0,18300.0,60.0,70.0,,,,5.0,,346.0,170.0,82.0,5.0,5.0,5.0,170.0,21.0,0.0,1,1.0,200.0,0,250.0,14.0,510.0,590.0,27.4,79.7,,
790.0,3700.0,18200.0,60.0,70.0,,,,5.0,,324.0,255.0,81.0,5.0,5.0,5.0,170.0,21.0,0.0,1,1.0,200.0,0,0.0,0.0,,,,,-53.0,100.0
730.0,2600.0,14100.0,70.0,110.0,,,,,,392.0,90.0,83.0,,,,170.0,21.0,0.0,1,1.0,200.0,0,0.0,0.0,478.0,540.0,24.2,78.9,,
700,4500.0,15000.0,50.0,60.0,,,,,,294.0,550.0,75.0,,,,170.0,21.0,0.0,1,1.0,200.0,0,0.0,0.0,530.0,597.0,25.0,81.6,,
700,2900.0,15000.0,80.0,90.0,,,,,,341.0,120.0,164.0,,,,170.0,21.0,0.0,1,1.0,200.0,0,0.0,0.0,513.0,573.0,25.2,76.0,,
730.0,2700.0,16600.0,90.0,80.0,,,,,,399.0,5.0,235.0,,,,170.0,21.0,0.0,1,1.0,200.0,0,0.0,0.0,505.0,607.0,24.0,76.0,,
670.0,4000.0,14800.0,60.0,80.0,,,,,,286.0,320.0,253.0,,,,170.0,21.0,0.0,1,1.0,200.0,0,0.0,0.0,546.0,621.0,23.6,76.0,,
350,3000.0,6600.0,60.0,130.0,,,,,,490.0,,70.0,,,,170.0,21.0,0.0,1,1.0,150.0,0,500.0,2.0,370.0,456.0,35.2,80.6,-32.0,100.0
490.0,3400,14200.0,50.0,130.0,,,,,,410.0,,90.0,,,,170.0,21.0,0.0,1,1.0,150.0,0,500.0,2.0,436.0,529.0,31.6,78.8,-50.0,100.0
500.0,2500.0,12100.0,130.0,240.0,18400.0,500.0,3400,100.0,600.0,444.0,,143.0,,,,170.0,24.0,0.0,1,2.1,107.0,0,620.0,1.0,673.0,680.0,23.8,,-42.0,50.0
1000.0,3400,14200.0,90.0,280.0,19200.0,500.0,3500.0,100.0,500.0,345.0,,87.0,,,,170.0,24.0,0.0,1,2.1,107.0,0,620.0,1.0,765.0,858.0,20.6,,-14.0,50.0
400.0,2200.0,8100,90.0,110.0,21900.0,,,,2900.0,300.0,120.0,,,,,165.0,25.0,0.0,2,1.0,200.0,0,0.0,0.0,471.0,596.0,23.0,66.0,,
400.0,2300.0,8300.0,100.0,110.0,22100.0,,,,10100.0,320.0,130.0,,,,,165.0,25.0,0.0,2,1.0,200.0,0,0.0,0.0,566.0,674.0,21.0,62.0,,
1010.0,1700,10200.0,80.0,120.0,19200.0,91200.0,10000.0,1900.0,,664.0,,494.0,,,470.0,180.0,34.0,0.0,1,1.0,175.0,0,750.0,8.0,672.0,866.0,13.6,56.8,,
910.0,1600.0,10000.0,80.0,150.0,0.0,93000.0,9800.0,1900.0,,666.0,,520.0,,,410.0,180.0,34.0,0.0,1,1.0,175.0,0,750.0,8.0,481.0,672.0,23.7,66.7,,
970.0,1800.0,10000.0,70.0,150.0,9300.0,91000.0,9600.0,1900.0,,667.0,,529.0,,,460.0,180.0,34.0,0.0,1,1.0,175.0,0,750.0,8.0,531.0,738.0,17.3,58.1,,
500.0,4600.0,9600.0,100.0,170.0,300.0,,100.0,,200.0,443.0,,84.0,,,,170.0,21.0,0.0,1,1.8,100.0,0,620.0,1.0,416.0,507.0,,,,
500.0,4100.0,9200.0,110.0,190.0,200.0,,5100.0,,200.0,450.0,,114.0,,,,170.0,21.0,0.0,1,1.8,100.0,0,620.0,1.0,538.0,626.0,,,,
600.0,4600.0,16300,100.0,200.0,200.0,,3400,,200.0,407.0,,106.0,,,,170.0,21.0,0.0,1,1.8,100.0,0,620.0,1.0,591.0,674.0,,,,
600.0,4200.0,20000.0,100.0,200.0,200.0,,100.0,,200.0,371.0,,117.0,,,,170.0,21.0,0.0,1,1.8,100.0,0,620.0,1.0,530.0,626.0,,,,
550.0,3900.0,19900.0,100.0,220.0,200.0,,5400.0,,200.0,364.0,,102.0,,,,170.0,21.0,0.0,1,1.8,100.0,0,620.0,1.0,693.0,783.0,,,,
300.0,4500.0,7800.0,130.0,100.0,,,,,,336.0,140.0,95.0,90.0,,,180.0,23.0,0.0,1,1.0,250.0,0,0.0,0.0,408.0,,,,0.0,136.0
320.0,4500.0,12700.0,80.0,100.0,,,,,,321.0,130.0,94.0,90.0,,,180.0,23.0,0.0,1,1.0,250.0,0,0.0,0.0,440.0,,,,-20.0,38.0
310.0,4200.0,17100.0,40.0,100.0,,,,,,297.0,110.0,109.0,80.0,,,180.0,23.0,0.0,1,1.0,250.0,0,0.0,0.0,488.0,,,,-40.0,71.0
320.0,4500.0,20500.0,20.0,100.0,,,,,,320.0,120.0,119.0,90.0,,,180.0,23.0,0.0,1,1.0,250.0,0,0.0,0.0,506.0,,,,-60.0,57.0
320.0,4500.0,20500.0,20.0,100.0,,,,,,320.0,120.0,119.0,90.0,,,180.0,23.0,0.0,1,1.0,250.0,0,0.0,0.0,506.0,,,,20.0,183.0
590.0,3400,7700.0,100.0,100.0,,,,,,306.0,110.0,66.0,70.0,,,180.0,23.0,0.0,1,1.0,250.0,0,0.0,0.0,400.0,,,,0.0,190.0
590.0,3300.0,10900.0,80.0,100.0,,,,,,310.0,100.0,64.0,70.0,,,180.0,23.0,0.0,1,1.0,250.0,0,0.0,0.0,430.0,,,,-20.0,124.0
590.0,3000.0,14400.0,60.0,100.0,,,,,,305.0,90.0,65.0,70.0,,,180.0,23.0,0.0,1,1.0,250.0,0,0.0,0.0,473.0,,,,-40.0,129.0
650.0,3300.0,18300.0,30.0,100.0,,,,,,291.0,90.0,76.0,70.0,,,180.0,23.0,0.0,1,1.0,250.0,0,0.0,0.0,496.0,,,,-60.0,88.0
650.0,3300.0,18300.0,30.0,100.0,,,,,,291.0,90.0,76.0,70.0,,,180.0,23.0,0.0,1,1.0,250.0,0,0.0,0.0,496.0,,,,20.0,174.0
900.0,4100.0,7800.0,130.0,100.0,,,,,,421.0,140.0,36.0,30.0,,,180.0,23.0,0.0,1,1.0,250.0,0,0.0,0.0,430.0,,,,0.0,148.0
890.0,3500.0,11800.0,110.0,100.0,,,,,,404.0,120.0,73.0,80.0,,,180.0,23.0,0.0,1,1.0,250.0,0,0.0,0.0,450.0,,,,-20.0,162.0
880.0,3700.0,15900.0,110.0,100.0,,,,,,491.0,120.0,77.0,30.0,,,180.0,23.0,0.0,1,1.0,250.0,0,0.0,0.0,478.0,,,,-40.0,110.0
980.0,3900.0,22500.0,80.0,140.0,,,,,,330.0,130.0,88.0,30.0,,,180.0,23.0,0.0,1,1.0,250.0,0,0.0,0.0,541.0,,,,-60.0,53.0
980.0,3900.0,22500.0,80.0,140.0,,,,,,330.0,130.0,88.0,30.0,,,180.0,23.0,0.0,1,1.0,250.0,0,0.0,0.0,541.0,,,,20.0,188.0
1200.0,4300.0,8600.0,110.0,140.0,,,,,,329.0,150.0,54.0,50.0,,,180.0,23.0,0.0,1,1.0,250.0,0,0.0,0.0,445.0,,,,0.0,183.0
1200.0,4400.0,13500.0,100.0,140.0,,,,,,326.0,150.0,55.0,30.0,,,180.0,23.0,0.0,1,1.0,250.0,0,0.0,0.0,516.0,,,,-20.0,145.0
1300.0,3700.0,18300.0,100.0,110.0,,,,,,318.0,130.0,63.0,30.0,,,180.0,23.0,0.0,1,1.0,250.0,0,0.0,0.0,526.0,,,,-40.0,114.0
1100.0,3600.0,21800.0,80.0,110.0,,,,,,342.0,120.0,74.0,30.0,,,180.0,23.0,0.0,1,1.0,250.0,0,0.0,0.0,617.0,,,,-60.0,52.0
1100.0,3600.0,21800.0,80.0,110.0,,,,,,342.0,120.0,74.0,30.0,,,180.0,23.0,0.0,1,1.0,250.0,0,0.0,0.0,617.0,,,,20.0,162.0
530.0,7000.0,12800.0,130.0,150.0,300.0,1000.0,,150.0,,622.0,80.0,71.0,120.0,2.0,20.0,280.0,30.0,0.0,1,2.8,200.0,2,200.0,14.0,,557.0,,,,
660.0,2300.0,7900.0,150.0,150.0,300.0,1100.0,,130.0,,796.0,310.0,70.0,210.0,16.0,70.0,285.0,32.0,0.0,1,2.9,200.0,2,200.0,14.0,,498.0,,,,
660.0,5600,11400,100.0,110.0,200.0,700,,160.0,,495.0,30.0,34.0,40.0,1.0,30.0,280.0,30.0,0.0,1,2.8,200.0,2,200.0,14.0,,533.0,,,,
700,4600.0,11900.0,100.0,180.0,100.0,1000.0,,160.0,,771.0,430.0,46.0,370.0,19.0,70.0,280.0,30.0,0.0,1,2.8,200.0,2,200.0,14.0,,538.0,,,,
710,3600.0,10900.0,60.0,90.0,,4100.0,,,,418.0,41.0,71.0,,,,170.0,21.0,0.0,1,1.0,200.0,0,0.0,0.0,,,,,-61.0,100.0
750.0,3500.0,10900.0,60.0,80.0,,12200.0,,,,424.0,52.0,87.0,,,,170.0,21.0,0.0,1,1.0,200.0,0,0.0,0.0,,,,,-57.0,100.0
730.0,3400,10700.0,60.0,70.0,,19700.0,,,,430.0,40.0,89.0,,,,170.0,21.0,0.0,1,1.0,200.0,0,0.0,0.0,,,,,-25.0,100.0
720.0,3800.0,10900.0,60.0,90.0,,28000.0,,,,467.0,33.0,85.0,,,,170.0,21.0,0.0,1,1.0,200.0,0,0.0,0.0,,,,,20.0,100.0
500.0,2600.0,7500.0,60.0,100.0,7500.0,5000.0,2400.0,,10400.0,210.0,70.0,80.0,180.0,25.0,320.0,680.0,34.0,0.0,1,4.6,200.0,1,0.0,0.0,556.0,,,,,
500.0,2400.0,9700.0,50.0,120.0,5300.0,4000.0,2600.0,,8200.0,230.0,90.0,80.0,140.0,21.0,200.0,670.0,34.0,0.0,1,4.6,200.0,1,0.0,0.0,552.0,,,,,
500.0,3600.0,8500.0,70.0,120.0,14900.0,5500.0,3100.0,,8900.0,210.0,40.0,80.0,170.0,19.0,320.0,660.0,34.0,0.0,1,4.6,200.0,1,0.0,0.0,601.0,,,,,
500.0,3900.0,11000.0,60.0,130.0,18700.0,5200.0,3700.0,,5700,220.0,60.0,80.0,140.0,13.0,210.0,660.0,34.0,0.0,1,4.6,200.0,1,0.0,0.0,547.0,,,,,
800.0,6200.0,18600.0,130.0,160.0,100.0,500.0,100.0,100.0,8100,174.0,230.0,54.0,220.0,10.0,,700.0,32.0,0.0,1,4.8,200.0,1,0.0,0.0,523.0,714.0,30.0,53.0,-5.0,35.0
800.0,6200.0,18300.0,130.0,140.0,15100.0,500.0,100.0,100.0,300.0,185.0,230.0,67.0,200.0,7.0,,700.0,32.0,0.0,1,4.8,200.0,1,0.0,0.0,515.0,737.0,26.0,48.0,0.0,35.0
800.0,6700.0,19400.0,130.0,150.0,5100.0,500.0,100.0,100.0,4300.0,142.0,280.0,57.0,220.0,40.0,,700.0,32.0,0.0,1,4.8,200.0,1,0.0,0.0,489.0,807.0,27.0,42.0,51.0,35.0
600.0,2800,5500.0,240.0,410.0,12600.0,0.0,0.0,100.0,200.0,,70.0,70.0,35.0,,60.0,,,0.0,1,2.2,250.0,0,0.0,0.0,475.8,564.1,28.0,70.5,,
800.0,3300.0,6500.0,150.0,260.0,5000.0,3500.0,80.0,40.0,200.0,,200.0,140.0,45.0,,150.0,,,0.0,1,2.4,250.0,0,0.0,0.0,503.3,591.5,28.0,73.0,,
700,2100.0,7500.0,110.0,110.0,0.0,0.0,0.0,0.0,0.0,,0.0,190.0,69.0,,0.0,,,0.0,1,2.6,250.0,0,0.0,0.0,463.0,552.3,33.0,75.0,,
800.0,3500.0,6500.0,100.0,210.0,12000.0,0.0,0.0,200.0,0.0,,40.0,100.0,150.0,,0.0,,,0.0,1,1.8,140.0,0,0.0,0.0,453.8,536.3,22.6,72.0,,
700,4700.0,8500.0,130.0,240.0,0.0,0.0,0.0,100.0,0.0,,80.0,120.0,43.0,,0.0,,,0.0,1,1.8,150.0,0,0.0,0.0,478.5,569.3,22.1,72.4,,
800.0,4900.0,9000.0,140.0,290.0,0.0,500.0,0.0,0.0,0.0,,50.0,170.0,108.0,,0.0,,,0.0,1,1.9,150.0,0,0.0,0.0,486.8,577.5,20.5,70.2,,
1000.0,1800.0,16000.0,150.0,290.0,0.0,0.0,5000.0,40.0,1400,,20.0,110.0,80.0,,100.0,,,0.0,1,2.4,200.0,1,0.0,0.0,630.8,725.9,24.5,68.5,,
1200.0,2200.0,12400.0,360.0,190.0,0.0,0.0,0.0,0.0,1800.0,,0.0,110.0,110.0,,200.0,,,0.0,1,1.7,200.0,1,0.0,0.0,483.6,586.6,32.0,70.5,,
800.0,2100.0,12000.0,140.0,220.0,0.0,0.0,0.0,0.0,0.0,,0.0,100.0,128.0,,60.0,,,0.0,1,1.7,200.0,1,0.0,0.0,453.2,596.4,30.0,74.0,,
640.0,2700.0,14400.0,210.0,240.0,,,200.0,90.0,2800,590.0,,102.0,,,,625.0,75.36,0.0,1,4.6,200.0,3,0.0,0.0,388.0,497.0,30.0,58.0,-60.0,10.0
730.0,3300.0,14400.0,210.0,180.0,,,200.0,90.0,2200.0,563.0,,124.0,,,,625.0,75.36,0.0,1,4.6,200.0,3,0.0,0.0,383.0,492.0,30.0,66.0,-60.0,40.0
600.0,2900.0,16800.0,170.0,190.0,,,200.0,100.0,2800,521.0,,133.0,,,,625.0,75.36,0.0,1,4.6,200.0,3,0.0,0.0,371.0,526.0,34.0,66.0,-60.0,25.0
800.0,3100.0,16700.0,170.0,170.0,,,300.0,100.0,2500.0,502.0,,82.0,,,,625.0,75.36,0.0,1,4.6,200.0,3,0.0,0.0,391.0,522.0,30.0,64.0,-60.0,39.0
860,2800,16800.0,230.0,200.0,,,100.0,100.0,2300.0,487.0,,77.0,,,,625.0,75.36,0.0,1,4.6,200.0,3,0.0,0.0,389.0,564.0,28.0,69.0,-60.0,38.0
890.0,4200.0,22200,220.0,250.0,,,200.0,100.0,600.0,466.0,,82.0,,,,625.0,75.36,0.0,1,4.6,200.0,3,0.0,0.0,517.0,672.0,24.0,56.0,-60.0,16.0
800.0,2400.0,13400.0,230.0,200.0,,,4300.0,100.0,1500.0,575.0,,86.0,,,,625.0,75.36,0.0,1,4.6,200.0,3,0.0,0.0,554.0,554.0,30.0,67.0,-60.0,16.0
950.0,4500.0,18800.0,200.0,220.0,,,4400.0,100.0,2600.0,425.0,,84.0,,,,625.0,75.36,0.0,1,4.6,200.0,3,0.0,0.0,747.0,747.0,25.0,62.0,-60.0,10.0
740.0,1600.0,8400.0,150.0,260.0,,,200.0,40.0,2800,415.0,,84.0,,,,625.0,72.24,0.0,1,4.4,200.0,3,0.0,0.0,352.0,459.0,36.0,72.0,-60.0,95.0
820.0,1800.0,7500.0,140.0,200.0,,,200.0,50.0,2200.0,381.0,,109.0,,,,625.0,72.24,0.0,1,4.4,200.0,3,0.0,0.0,349.0,456.0,36.0,72.0,-60.0,67.0
700,1600.0,11700.0,130.0,200.0,,,200.0,100.0,2600.0,368.0,,108.0,,,,625.0,72.24,0.0,1,4.4,200.0,3,0.0,0.0,350.0,462.0,24.0,76.0,-60.0,110.0
1100.0,1600.0,10900.0,120.0,180.0,,,300.0,100.0,2400.0,353.0,,78.0,,,,625.0,72.24,0.0,1,4.4,200.0,3,0.0,0.0,376.0,484.0,32.0,74.0,-60.0,15.0
980.0,1800.0,12900.0,170.0,170.0,,,100.0,100.0,2100.0,337.0,,61.0,,,,625.0,72.24,0.0,1,4.4,200.0,3,0.0,0.0,359.0,503.0,28.0,72.0,-60.0,59.0
1000.0,2400.0,19100.0,160.0,160.0,,,200.0,100.0,500.0,228.0,,74.0,,,,625.0,72.24,0.0,1,4.4,200.0,3,0.0,0.0,376.0,553.0,33.0,70.0,-60.0,30.0
960.0,1300.0,7300.0,180.0,220.0,,,4300.0,100.0,1400,373.0,,81.0,,,,625.0,72.24,0.0,1,4.4,200.0,3,0.0,0.0,353.0,491.0,32.0,67.0,-60.0,14.0
1200.0,2700.0,14600.0,140.0,260.0,,,4800.0,100.0,3000.0,365.0,,77.0,,,,625.0,72.24,0.0,1,4.4,200.0,3,0.0,0.0,689.0,689.0,34.0,69.0,-60.0,41.0
1100.0,3600.0,16100,170.0,300.0,600.0,520.0,200.0,100.0,1200.0,305.0,100.0,95.0,140.0,10.0,200.0,550.0,28.0,0.0,1,3.6,100.0,1,0.0,0.0,542.0,625.0,19.0,64.0,-7.0,70.0
760.0,2800,12700.0,120.0,200.0,1000.0,600.0,100.0,100.0,1500.0,435.0,100.0,121.0,160.0,10.0,300.0,550.0,28.0,0.0,1,3.6,100.0,1,0.0,0.0,503.0,625.0,17.0,72.0,-5.0,70.0
720.0,1100.0,8500.0,150.0,170.0,1400,700,100.0,100.0,1400,543.0,100.0,119.0,50.0,10.0,100.0,550.0,28.0,0.0,1,3.6,100.0,1,0.0,0.0,436.0,525.0,15.0,77.0,38.0,70.0
440.0,3200.0,6200.0,70.0,70.0,,,,,,,,,,,,,,0.0,1,0.6,200.0,0,0.0,0.0,,,,,-36.0,100.0
500.0,3800.0,14200.0,70.0,90.0,,,,,,,,,,,,,,0.0,1,0.6,200.0,0,0.0,0.0,,,,,-47.0,100.0
370.0,2900.0,6000.0,60.0,90.0,,,,,,,,,,,,,,0.0,1,1.0,200.0,0,0.0,0.0,,,,,-31.0,100.0
480.0,3500.0,14100.0,60.0,120.0,,,,,,,,,,,,,,0.0,1,1.0,200.0,0,0.0,0.0,,,,,-54.0,100.0
380.0,2400.0,5500.0,70.0,50.0,,,,,,,,,,,,,,0.0,1,2.2,200.0,0,0.0,0.0,,,,,-39.0,100.0
420.0,2800,13700,70.0,120.0,,,,,,,,,,,,,,0.0,1,2.2,200.0,0,0.0,0.0,,,,,-57.0,100.0
430.0,2000.0,5200.0,90.0,100.0,,,,,,,,,,,,,,0.0,1,4.3,200.0,0,0.0,0.0,,,,,-15.0,100.0
430.0,2400.0,13700,80.0,130.0,,,,,,,,,,,,,,0.0,1,4.3,200.0,0,0.0,0.0,,,,,-27.0,100.0
1300.0,3000.0,14000.0,100.0,120.0,700,600.0,50.0,20.0,,430.0,0.5,95.0,,,180.0,850.0,35.0,0.0,1,7.9,300.0,1,0.0,0.0,530.0,620.0,,63.0,,
1150.0,2600.0,15000.0,100.0,140.0,600.0,500.0,90.0,50.0,,455.0,5.0,100.0,,,170.0,850.0,35.0,0.0,1,7.9,300.0,1,0.0,0.0,465.0,571.0,,70.0,,
1050.0,2400.0,13900,120.0,120.0,700,300.0,1500.0,30.0,,411.0,100.0,103.0,,20.0,190.0,850.0,35.0,0.0,1,7.9,300.0,1,0.0,0.0,496.0,604.0,,65.0,,
1000.0,2600.0,13800,100.0,110.0,700,300.0,1400,20.0,,416.0,120.0,116.0,,22.0,100.0,850.0,35.0,0.0,1,7.9,300.0,1,0.0,0.0,460.0,583.0,,63.0,,
430.0,3000.0,10300.0,70.0,130.0,,,,,,,,,,,,170.0,21.0,0.0,1,1.0,20.0,0,0.0,0.0,495.0,554.0,30.6,77.8,-32.0,100.0
470.0,3100.0,10000.0,80.0,150.0,,,,,,,,,,,,170.0,21.0,0.0,1,1.0,150.0,0,0.0,0.0,454.0,519.0,29.0,78.8,-35.0,100.0
420.0,3200.0,10200.0,70.0,120.0,,,,,,,,,,,,170.0,21.0,0.0,1,1.0,240.0,0,0.0,0.0,427.0,499.0,34.6,80.5,-42.0,100.0
450.0,3000.0,9900.0,80.0,100.0,,,,,,,,,,,,170.0,21.0,0.0,1,1.0,300.0,0,0.0,0.0,410.0,486.0,34.8,80.6,-47.0,100.0
1200.0,2900.0,14600.0,250.0,280.0,560.0,560.0,50.0,1200.0,900.0,,50.0,,180.0,,40.0,650.0,33.0,0.0,1,3.3,300.0,1,,,605.0,,16.0,48.0,,
1500.0,3000.0,15700.0,260.0,280.0,700,590.0,1100.0,1220.0,930.0,,60.0,,170.0,,60.0,650.0,33.0,0.0,1,3.3,300.0,1,,,715.0,,16.0,62.0,,
1300.0,3000.0,13800,140.0,280.0,580.0,600.0,50.0,950.0,800.0,,60.0,,150.0,,50.0,850.0,38.0,0.0,1,7.6,300.0,1,,,588.0,,25.0,50.0,,
1300.0,2700.0,14600.0,110.0,260.0,680.0,620.0,2600.0,1030.0,1050.0,,60.0,,150.0,,50.0,850.0,38.0,0.0,1,7.6,300.0,1,,,720.0,,15.0,55.0,,
1100.0,2800,13900,90.0,170.0,650.0,690,80.0,320.0,1200.0,,50.0,,180.0,,50.0,650.0,33.0,0.0,1,3.3,300.0,1,,,540.0,,26.0,70.0,,
1200.0,3000.0,15100.0,60.0,130.0,900.0,700,2700.0,360.0,1500.0,,50.0,,160.0,,50.0,650.0,33.0,0.0,1,3.3,300.0,1,,,630.0,,32.0,76.0,,
1200.0,3000.0,14000.0,160.0,750.0,1400,1100.0,250.0,50.0,2500.0,,,,150.0,,50.0,650.0,33.0,0.0,1,3.3,300.0,1,,,431.0,,27.0,62.0,,
800.0,2800,13900,110.0,150.0,280.0,300.0,1700,490.0,440.0,340.0,50.0,54.0,120.0,,150.0,650.0,33.0,0.0,1,3.3,300.0,1,600.0,0.75,642.0,732.0,22.0,58.0,,
1600.0,1300.0,10600.0,280.0,130.0,300.0,200.0,50.0,50.0,480.0,410.0,50.0,67.0,120.0,,50.0,650.0,33.0,0.0,1,3.3,300.0,1,600.0,0.75,330.0,494.0,27.0,51.0,,
1100.0,2600.0,14400.0,80.0,120.0,690,560.0,100.0,1050.0,760.0,410.0,50.0,145.0,170.0,,50.0,650.0,33.0,0.0,1,3.3,300.0,1,600.0,0.75,599.0,701.0,26.0,64.0,,
1000.0,3500.0,15400.0,90.0,160.0,600.0,490.0,1800.0,570.0,1100.0,420.0,50.0,138.0,160.0,,50.0,650.0,33.0,0.0,1,3.3,300.0,1,600.0,0.75,593.0,692.0,26.0,65.0,,
1600.0,1200.0,10000.0,320.0,140.0,280.0,200.0,3900.0,50.0,430.0,450.0,50.0,62.0,120.0,,50.0,650.0,33.0,0.0,1,3.3,300.0,1,600.0,0.75,569.0,624.0,22.0,54.0,,
1100.0,2500.0,13300.0,80.0,110.0,670.0,530.0,4400.0,970.0,720.0,440.0,50.0,145.0,180.0,,50.0,650.0,33.0,0.0,1,3.3,300.0,1,600.0,0.75,662.0,740.0,24.0,60.0,,
1400,3800.0,16500.0,280.0,,,,5000.0,50.0,,,0.0,,,,0.0,650.0,33.0,0.0,1,3.3,300.0,1,600.0,0.75,644.0,714.0,34.0,63.0,,
1100.0,3500.0,14200.0,100.0,160.0,670.0,750.0,220.0,,1700,260.0,,80.0,180.0,,230.0,650.0,33.0,0.0,1,3.3,300.0,1,0.0,0.0,493.0,649.0,25.0,60.0,,
800.0,3600.0,16000.0,170.0,210.0,650.0,750.0,170.0,,1800.0,,,,300.0,,170.0,450.0,30.0,0.0,1,1.9,300.0,1,0.0,0.0,457.0,556.0,25.0,60.0,,
900.0,4600.0,18100.0,170.0,240.0,1000.0,800.0,2800,,2100.0,340.0,,100.0,260.0,,140.0,650.0,33.0,0.0,1,3.3,300.0,1,0.0,0.0,620.0,712.0,22.0,58.0,,
900.0,3700.0,10300.0,40.0,100.0,500.0,88000.0,10300.0,2500.0,100.0,470.0,100.0,370.0,100.0,,800.0,180.0,23.0,0.0,1,1.3,175.0,0,0.0,0.0,,,,,,
900.0,3700.0,10300.0,40.0,100.0,500.0,88000.0,10300.0,2500.0,100.0,470.0,100.0,370.0,100.0,,800.0,180.0,23.0,0.0,1,1.3,175.0,0,740.0,8.0,,,,,,
600.0,3400,10800.0,70.0,140.0,6900,90000.0,10300.0,2900.0,200.0,480.0,100.0,110.0,100.0,,100.0,116.0,23.0,0.0,1,1.3,175.0,0,720.0,2.0,,,,,,
600.0,3400,10800.0,70.0,140.0,6900,90000.0,10300.0,2900.0,200.0,480.0,100.0,110.0,100.0,,100.0,116.0,23.0,0.0,1,1.3,175.0,0,760.0,2.0,,,,,,
700,2300.0,10000.0,20.0,60.0,5800.0,83000.0,9300.0,2400.0,100.0,460.0,100.0,250.0,100.0,,340.0,116.0,23.0,0.0,1,1.3,175.0,0,720.0,8.0,,,,,,
700,2300.0,10000.0,20.0,60.0,5800.0,83000.0,9300.0,2400.0,100.0,460.0,100.0,250.0,100.0,,340.0,116.0,23.0,0.0,1,1.3,175.0,0,760.0,8.0,,,,,,
1100.0,5100.0,11000.0,70.0,130.0,800.0,89000.0,10000.0,1800.0,300.0,500.0,100.0,400.0,100.0,,900.0,115.0,23.0,0.0,1,1.0,175.0,0,740.0,2.0,,,,,,
600.0,3200.0,12300.0,20.0,20.0,10100.0,84000.0,8900.0,2200.0,100.0,380.0,100.0,80.0,100.0,,300.0,163.0,25.0,0.0,1,1.2,175.0,0,0.0,0.0,,,,,,
600.0,3200.0,12300.0,20.0,20.0,10100.0,84000.0,8900.0,2200.0,100.0,380.0,100.0,80.0,100.0,,300.0,163.0,25.0,0.0,1,1.2,175.0,0,740.0,8.0,,,,,,
1000.0,4300.0,9600.0,30.0,60.0,1700,86000.0,9700.0,2200.0,200.0,360.0,0.01,430.0,0.01,,200.0,145.0,20.0,0.0,1,1.0,200.0,0,750.0,2.0,,,,,20.0,23.0
1000.0,4000.0,9800.0,40.0,80.0,1700,87000.0,9800.0,2200.0,300.0,410.0,0.01,420.0,0.01,,300.0,145.0,21.0,0.0,1,1.2,200.0,0,750.0,2.0,,,,,40.0,52.0
1000.0,4200.0,9100.0,40.0,80.0,1700,89000.0,9800.0,2100.0,300.0,390.0,0.01,410.0,0.01,,900.0,146.0,22.0,0.0,1,1.1,200.0,0,760.0,8.0,,,,,-20.0,10.0
1000.0,2700.0,6000.0,20.0,110.0,1300.0,87500.0,10200.0,2000.0,900.0,,20.0,390.0,160.0,10.0,,400.0,31.5,1.0,1,1.4,177.0,9,746.0,4.0,625.0,734.0,22.0,63.0,,
900.0,3400,4800.0,40.0,110.0,800.0,86000.0,9800.0,2200.0,500.0,,20.0,260.0,0.005,10.0,,390.0,11.5,0.0,1,1.9,177.0,8,746.0,4.0,661.0,756.0,24.0,73.0,,
1100.0,3000.0,4400.0,40.0,110.0,800.0,85800.0,10000.0,2200.0,500.0,,20.0,340.0,0.004,10.0,,275.0,28.5,0.0,1,1.2,177.0,7,746.0,4.0,603.0,726.0,20.0,66.0,,
1000.0,2200.0,5500.0,90.0,130.0,2100.0,26800.0,10500.0,,,260.0,,,200.0,,,500.0,32.0,0.0,1,2.0,250.0,5,690.0,10.0,492.0,610.0,27.0,,0.0,164.0
600.0,4900.0,6700.0,110.0,90.0,2100.0,26300.0,10600.0,,,850.0,,,150.0,,,500.0,32.0,0.0,1,2.0,250.0,5,690.0,10.0,469.0,592.0,27.0,,22.0,96.0
1000.0,1900.0,5300.0,70.0,70.0,2000.0,27000.0,10300.0,,,220.0,,,150.0,,,500.0,32.0,0.0,1,2.0,250.0,5,690.0,10.0,456.0,592.0,29.0,,24.0,270.0
1000.0,1900.0,5300.0,70.0,70.0,2000.0,27000.0,10300.0,,,220.0,,,150.0,,,500.0,32.0,0.0,1,2.0,250.0,5,690.0,10.0,456.0,592.0,29.0,,-60.0,53.0
900.0,2400.0,6800,130.0,60.0,2000.0,22200,10300.0,,,520.0,,,100.0,,,500.0,30.0,0.0,1,3.6,200.0,6,690.0,10.0,535.0,627.0,23.0,,-40.0,81.0
1100.0,1400,7300.0,20.0,50.0,,23000.0,10300.0,2700.0,,254.0,,26.0,,,200.0,500.0,29.0,1.0,0,2.9,200.0,1,690.0,8.0,,738.0,,,-40.0,17.0
1100.0,1400,7300.0,20.0,50.0,,23000.0,10300.0,2700.0,,254.0,,26.0,,,200.0,500.0,29.0,1.0,0,2.9,200.0,1,690.0,24.0,,685.0,,,,
1200.0,1400,10300.0,20.0,60.0,,23000.0,10300.0,2700.0,,166.0,,22.0,,,200.0,500.0,29.0,1.0,0,2.9,200.0,1,690.0,8.0,,745.0,,,-20.0,149.0
1400,1800.0,7500.0,20.0,50.0,,23000.0,10100.0,2700.0,,256.0,,21.0,,,200.0,500.0,29.0,1.0,0,2.9,200.0,1,690.0,8.0,,770.0,,,-40.0,37.0
1400,1800.0,7500.0,20.0,50.0,,23000.0,10100.0,2700.0,,256.0,,21.0,,,200.0,500.0,29.0,1.0,0,2.9,200.0,1,690.0,24.0,,714.0,,,,
1100.0,1400,13200.0,20.0,80.0,,22700.0,10000.0,3200.0,,334.0,,127.0,,,200.0,500.0,29.0,1.0,0,2.9,200.0,1,690.0,24.0,,,22.4,69.1,,
1200.0,1300.0,11800.0,20.0,70.0,,22600.0,10000.0,3100.0,,286.0,,312.0,,,200.0,500.0,29.0,1.0,0,2.9,200.0,1,690.0,24.0,,,21.7,67.0,,
840.0,4150.0,12400.0,110.0,150.0,500.0,370.0,3850.0,,1050.0,480.0,,86.0,,,,,,0.0,1,2.4,100.0,1,550.0,1.83,,,,,-40.0,96.0
840.0,3000.0,5400.0,50.0,80.0,360.0,22000.0,10500.0,,350,660.0,,66.0,,,,,,0.0,1,2.4,175.0,1,690.0,2.33,524.0,664.0,23.6,66.5,,
840.0,3000.0,5400.0,50.0,80.0,360.0,22000.0,10500.0,,350,660.0,,66.0,,,,,,0.0,1,2.4,175.0,1,690.0,2.33,,,,,,
600.0,2000.0,11500.0,70.0,170.0,1600.0,520.0,4500.0,,1280.0,350.0,,97.0,,,,,,0.0,1,2.4,125.0,1,605.0,1.92,,,,,-10.0,80.0
1000.0,1700,6700.0,,,1400,23100.0,2900.0,,,,,240.0,,,240.0,535.0,63.0,1.0,0,1.8,225.0,3,690.0,24.0,596.0,703.0,20.0,62.0,,
700,800.0,9800.0,100.0,100.0,2700.0,20700.0,10700.0,150.0,,891.0,,97.0,,,,300.0,28.0,0.0,1,2.04,150.0,2,690.0,10.0,440.0,540.0,24.0,67.0,-70.0,9.0
700,800.0,9800.0,100.0,100.0,2700.0,20700.0,10700.0,150.0,,891.0,,97.0,,,,300.0,28.0,0.0,1,2.04,150.0,2,690.0,10.0,440.0,540.0,24.0,67.0,-20.0,43.0
700,800.0,9800.0,100.0,100.0,2700.0,20700.0,10700.0,150.0,,891.0,,97.0,,,,300.0,28.0,0.0,1,2.04,150.0,2,690.0,10.0,440.0,540.0,24.0,67.0,60.0,210.0
480.0,1300.0,10600.0,140.0,160.0,2300.0,20200.0,13000.0,200.0,,768.0,,266.0,,,,300.0,28.0,0.0,1,1.96,150.0,2,690.0,10.0,506.0,598.0,22.0,70.0,-40.0,15.0
480.0,1300.0,10600.0,140.0,160.0,2300.0,20200.0,13000.0,200.0,,768.0,,266.0,,,,300.0,28.0,0.0,1,1.96,150.0,2,690.0,10.0,506.0,598.0,22.0,70.0,40.0,160.0
430.0,1200.0,8600.0,110.0,170.0,2000.0,20100.0,9300.0,200.0,,922.0,,123.0,,,,300.0,20.0,0.0,1,2.08,150.0,2,690.0,10.0,505.0,600.0,19.0,69.0,-20.0,9.0
430.0,1200.0,8600.0,110.0,170.0,2000.0,20100.0,9300.0,200.0,,922.0,,123.0,,,,300.0,20.0,0.0,1,2.08,150.0,2,690.0,10.0,505.0,600.0,19.0,69.0,30.0,65.0
420.0,1400,13300.0,120.0,150.0,2600.0,23900.0,12100.0,150.0,,735.0,,236.0,,,,300.0,28.0,0.0,1,1.96,150.0,2,690.0,10.0,520.0,620.0,20.0,54.0,-40.0,49.0
420.0,1400,13300.0,120.0,150.0,2600.0,23900.0,12100.0,150.0,,735.0,,236.0,,,,300.0,28.0,0.0,1,1.96,150.0,2,690.0,10.0,520.0,620.0,20.0,54.0,40.0,135.0
470.0,4200.0,10000.0,150.0,160.0,1700,22900.0,10400.0,180.0,,695.0,,165.0,,,,300.0,28.0,0.0,1,2.08,150.0,2,690.0,10.0,537.0,620.0,11.0,24.0,-40.0,12.0
470.0,4200.0,10000.0,150.0,160.0,1700,22900.0,10400.0,180.0,,695.0,,165.0,,,,300.0,28.0,0.0,1,2.08,150.0,2,690.0,10.0,537.0,620.0,11.0,24.0,40.0,154.0
740.0,2700.0,11100,90.0,240.0,1700,23000.0,9600.0,180.0,,556.0,,113.0,,,,290.0,29.0,0.0,1,2.0,150.0,2,690.0,10.0,595.0,675.0,24.0,69.0,-60.0,3.0
740.0,2700.0,11100,90.0,240.0,1700,23000.0,9600.0,180.0,,556.0,,113.0,,,,290.0,29.0,0.0,1,2.0,150.0,2,690.0,10.0,595.0,675.0,24.0,69.0,20.0,52.0
740.0,2700.0,11100,90.0,240.0,1700,23000.0,9600.0,180.0,,556.0,,113.0,,,,290.0,29.0,0.0,1,2.0,150.0,2,690.0,10.0,595.0,675.0,24.0,69.0,70.0,105.0
620.0,2400.0,12400.0,1400,2500.0,2200.0,21700.0,9800.0,1800.0,,408.0,,269.0,,,,290.0,29.0,0.0,1,2.0,150.0,2,690.0,10.0,643.0,708.0,16.0,32.0,-20.0,37.0
620.0,2400.0,12400.0,1400,2500.0,2200.0,21700.0,9800.0,1800.0,,408.0,,269.0,,,,290.0,29.0,0.0,1,2.0,150.0,2,690.0,10.0,643.0,708.0,16.0,32.0,60.0,68.0
550.0,3700.0,8200.0,210.0,80.0,860,25000.0,9900.0,100.0,5100.0,694.0,50.0,160.0,130.0,,,,,0.0,1,3.6,177.0,3,593.0,4.5,719.0,811.0,16.0,44.6,,
690,5300.0,5800.0,180.0,140.0,,26000.0,11000.0,,,430.0,,,,,,150.0,37.5,0.0,1,1.0,300.0,0,690.0,3.0,593.0,698.0,17.0,67.0,,
580.0,2000.0,5500.0,270.0,270.0,,18000.0,12000.0,,,730.0,,,,,,150.0,37.5,0.0,1,1.0,300.0,0,690.0,3.0,464.0,578.0,23.0,71.0,,
650.0,3900.0,7700.0,290.0,160.0,,24000.0,14000.0,,,560.0,,,,,,150.0,37.5,0.0,1,1.0,300.0,0,690.0,3.0,581.0,693.0,20.0,69.0,,
1000.0,4400.0,8000.0,210.0,200.0,,25000.0,12000.0,,,520.0,,,,,,150.0,37.5,0.0,1,1.0,300.0,0,690.0,3.0,576.0,678.0,17.0,70.0,,
490.0,3900.0,7800.0,220.0,180.0,,22000.0,11000.0,,,680.0,,,,,,150.0,37.5,0.0,1,1.0,300.0,0,690.0,3.0,546.0,661.0,20.0,69.0,,
580.0,6100.0,9300.0,140.0,170.0,,25000.0,11000.0,,,1020.0,,,,,,150.0,37.5,0.0,1,1.0,300.0,0,690.0,3.0,638.0,736.0,17.0,66.0,,
1100.0,4800.0,11300,150.0,180.0,,24000.0,9000.0,,,520.0,,,,,,150.0,37.5,0.0,1,1.0,300.0,0,690.0,3.0,,,,,,
600.0,2600.0,9400.0,110.0,180.0,,23000.0,12000.0,,,,,,,,,150.0,37.5,0.0,1,1.0,300.0,0,690.0,3.0,,,,,,
800.0,2500.0,8000.0,100.0,100.0,300.0,23000.0,10500.0,100.0,200.0,,,,,,,525.0,30.0,0.0,1,1.75,210.0,1,700.0,20.0,507.0,613.0,,,,
800.0,2500.0,8000.0,100.0,100.0,300.0,23000.0,10500.0,100.0,200.0,,,,,,,525.0,30.0,0.0,1,1.75,210.0,1,700.0,20.0,527.0,627.0,,,,
800.0,2500.0,8000.0,100.0,100.0,300.0,23000.0,10500.0,100.0,200.0,,,,,,,525.0,30.0,0.0,1,1.75,210.0,1,700.0,20.0,515.0,616.0,,,,
800.0,2500.0,8000.0,100.0,100.0,300.0,23000.0,10500.0,100.0,200.0,,,,,,,525.0,30.0,0.0,1,1.75,210.0,1,700.0,20.0,509.0,610.0,,,,
800.0,2500.0,8000.0,100.0,100.0,300.0,23000.0,10500.0,100.0,200.0,,,,,,,525.0,30.0,0.0,1,1.75,210.0,1,700.0,20.0,504.0,612.0,,,,
300.0,5500.0,8800.0,120.0,130.0,,20600.0,10800.0,,,,,,,,,545.0,32.0,0.0,1,3.7,200.0,1,720.0,3.5,315.0,500.0,,,,
930.0,3200.0,8600.0,100.0,180.0,0.0,0.0,0.0,0.0,0.0,236.0,,54.0,180.0,,0.0,550.0,30.0,,1,2.475,250.0,1,200.0,1.0,390.0,486.0,33.0,76.0,,
1000.0,2800,8200.0,120.0,140.0,0.0,0.0,0.0,0.0,0.0,258.0,,45.0,200.0,,0.0,900.0,33.0,,1,4.8,100.0,1,200.0,1.0,337.0,477.0,32.6,71.0,,
890.0,3200.0,13600,50.0,190.0,0.0,0.0,0.0,0.0,0.0,237.0,,85.0,180.0,,0.0,550.0,30.0,,1,2.475,250.0,1,200.0,1.0,428.0,539.0,28.0,75.0,,
900.0,3300.0,11900.0,70.0,150.0,0.0,0.0,0.0,0.0,0.0,234.0,,78.0,200.0,,0.0,900.0,33.0,,1,4.8,100.0,1,200.0,1.0,,539.0,27.1,67.0,,
780.0,4400.0,12400.0,120.0,180.0,0.0,0.0,0.0,0.0,0.0,479.0,,61.0,220.0,,0.0,550.0,30.0,,1,2.475,250.0,1,200.0,1.0,383.0,487.0,32.4,77.0,,
770.0,4400.0,16100,120.0,210.0,0.0,0.0,0.0,0.0,0.0,434.0,,105.0,180.0,,0.0,450.0,30.0,,1,2.025,250.0,1,200.0,1.0,456.0,567.0,27.6,73.0,,
290.0,5500.0,10800.0,110.0,80.0,0.0,0.0,0.0,0.0,0.0,342.0,,72.0,20.0,,0.0,190.0,23.0,,1,1.0925,250.0,0,200.0,1.0,437.0,509.0,31.4,80.0,,
730.0,3900.0,15500.0,120.0,180.0,0.0,0.0,0.0,0.0,0.0,463.0,,72.0,220.0,,0.0,650.0,30.0,,1,2.925,250.0,1,200.0,1.0,435.0,546.0,27.0,73.0,,
660.0,8000.0,11200,170.0,210.0,0.0,0.0,0.0,0.0,0.0,774.0,,26.0,330.0,,0.0,550.0,30.0,,1,2.475,250.0,1,200.0,1.0,469.0,561.0,29.0,69.0,,
700,11400,14500.0,150.0,270.0,0.0,0.0,0.0,0.0,0.0,699.0,,37.0,230.0,,0.0,450.0,30.0,,1,2.025,250.0,1,200.0,1.0,530.0,636.0,26.6,64.0,,
730.0,7600.0,11400,150.0,180.0,0.0,0.0,0.0,0.0,0.0,711.0,,46.0,350.0,,0.0,650.0,30.0,,1,2.925,250.0,1,200.0,1.0,481.0,577.0,27.8,65.0,,
710,8400.0,15300.0,120.0,220.0,0.0,0.0,0.0,0.0,0.0,720.0,,72.0,310.0,,0.0,550.0,30.0,,1,2.475,250.0,1,200.0,1.0,560.0,652.0,25.0,56.0,,
730.0,3400,6400.0,80.0,70.0,0.0,0.0,0.0,5.0,0.0,450.0,7.0,63.0,5.0,5.0,5.0,,,,0,1.0,200.0,0,250.0,14.0,404.0,494.0,32.4,76.0,-46.0,100.0
650.0,2600.0,6100.0,70.0,70.0,21400.0,0.0,0.0,5.0,0.0,488.0,5.0,86.0,5.0,5.0,5.0,,,,0,1.0,200.0,0,250.0,14.0,443.0,528.0,32.4,76.0,-65.0,100.0
700,3100.0,6600.0,60.0,80.0,0.0,0.0,2400.0,5.0,0.0,430.0,5.0,79.0,5.0,5.0,5.0,,,,0,1.0,200.0,0,250.0,14.0,433.0,518.0,26.0,78.9,-61.0,100.0
750.0,3000.0,6300.0,80.0,80.0,0.0,0.0,10300.0,5.0,0.0,438.0,5.0,80.0,5.0,5.0,5.0,,,,0,1.0,200.0,0,250.0,14.0,528.0,619.0,20.6,73.0,7.0,100.0
740.0,2500.0,5800.0,80.0,100.0,0.0,15900.0,0.0,5.0,0.0,500.0,4.0,89.0,5.0,5.0,5.0,,,,0,1.0,200.0,0,250.0,14.0,494.0,593.0,19.0,71.9,-22.0,100.0
680.0,2800,6200.0,80.0,70.0,0.0,0.0,0.0,5.0,5000.0,477.0,5.0,73.0,5.0,5.0,5.0,,,,0,1.0,200.0,0,250.0,14.0,391.0,468.0,29.4,77.0,-63.0,100.0
640.0,3200.0,6400.0,70.0,80.0,0.0,0.0,0.0,5.0,16000.0,498.0,4.0,60.0,5.0,5.0,5.0,,,,0,1.0,200.0,0,250.0,14.0,504.0,565.0,26.6,73.0,-24.0,100.0
630.0,3100.0,6500.0,60.0,90.0,8800.0,0.0,0.0,5.0,0.0,472.0,38.0,85.0,5.0,5.0,5.0,,,,0,1.0,200.0,0,250.0,14.0,423.0,501.0,31.8,77.0,-63.0,100.0
670.0,3000.0,6500.0,70.0,70.0,30300.0,0.0,0.0,5.0,0.0,460.0,36.0,72.0,5.0,5.0,5.0,,,,0,1.0,200.0,0,250.0,14.0,477.0,557.0,29.4,78.0,-85.0,100.0
730.0,3400,6600.0,70.0,70.0,0.0,0.0,5000.0,5.0,0.0,433.0,42.0,70.0,5.0,5.0,5.0,,,,0,1.0,200.0,0,250.0,14.0,483.0,565.0,27.2,78.0,-48.0,100.0
770.0,3200.0,6600.0,80.0,100.0,0.0,10300.0,0.0,5.0,0.0,457.0,34.0,75.0,5.0,5.0,5.0,,,,0,1.0,200.0,0,250.0,14.0,490.0,558.0,21.0,77.9,-35.0,100.0
780.0,2800,6400.0,80.0,70.0,0.0,21500.0,0.0,5.0,0.0,482.0,42.0,95.0,5.0,5.0,5.0,,,,0,1.0,200.0,0,250.0,14.0,598.0,685.0,18.0,68.6,8.0,100.0
640.0,3000.0,6300.0,70.0,70.0,0.0,0.0,0.0,5.0,10500.0,456.0,42.0,65.0,5.0,5.0,5.0,,,,0,1.0,200.0,0,250.0,14.0,429.0,497.0,26.6,77.0,-58.0,100.0
780.0,2600.0,14300.0,60.0,60.0,0.0,0.0,0.0,5.0,0.0,481.0,5.0,86.0,5.0,5.0,5.0,,,,0,1.0,200.0,0,250.0,14.0,434.0,526.0,29.2,78.0,-18.0,100.0
710,2600.0,14800.0,70.0,120.0,22800.0,0.0,0.0,5.0,0.0,460.0,5.0,87.0,5.0,5.0,5.0,,,,0,1.0,200.0,0,250.0,14.0,512.0,605.0,21.7,75.0,-20.0,100.0
760.0,2800,15300.0,80.0,60.0,0.0,0.0,2500.0,5.0,0.0,444.0,5.0,84.0,5.0,5.0,5.0,,,,0,1.0,200.0,0,250.0,14.0,474.0,570.0,20.4,77.0,-24.0,100.0
760.0,2400.0,14100.0,80.0,60.0,0.0,0.0,11100,5.0,0.0,447.0,5.0,85.0,5.0,5.0,5.0,,,,0,1.0,200.0,0,250.0,14.0,594.0,699.0,19.2,68.6,26.0,100.0
750.0,2800,14800.0,70.0,50.0,0.0,15500.0,0.0,5.0,0.0,466.0,5.0,86.0,5.0,5.0,5.0,,,,0,1.0,200.0,0,250.0,14.0,591.0,687.0,17.8,69.7,6.0,100.0
800.0,2400.0,14700.0,70.0,70.0,0.0,0.0,0.0,5.0,5500.0,455.0,5.0,96.0,5.0,5.0,5.0,,,,0,1.0,200.0,0,250.0,14.0,453.0,535.0,26.6,78.9,-10.0,100.0
740.0,2200.0,13600,80.0,100.0,0.0,0.0,0.0,5.0,16300,484.0,5.0,110.0,5.0,5.0,5.0,,,,0,1.0,200.0,0,250.0,14.0,559.0,638.0,23.2,70.8,23.0,100.0
760.0,2500.0,14800.0,80.0,60.0,9500.0,0.0,0.0,5.0,0.0,417.0,33.0,81.0,5.0,5.0,5.0,,,,0,1.0,200.0,0,250.0,14.0,498.0,551.0,27.2,78.9,-62.0,100.0
750.0,2600.0,14600.0,80.0,60.0,31500.0,0.0,0.0,5.0,0.0,418.0,32.0,72.0,5.0,5.0,5.0,,,,0,1.0,200.0,0,250.0,14.0,604.0,680.0,20.0,71.9,-49.0,100.0
750.0,2600.0,14600.0,80.0,70.0,0.0,0.0,5000.0,50000.0,0.0,429.0,31.0,86.0,5.0,5.0,5.0,,,,0,1.0,200.0,0,250.0,14.0,596.0,642.0,21.0,74.0,-56.0,100.0
790.0,3000.0,15600.0,70.0,110.0,0.0,10300.0,0.0,5.0,0.0,431.0,27.0,98.0,5.0,5.0,5.0,,,,0,1.0,200.0,0,250.0,14.0,624.0,672.0,20.0,73.0,-58.0,100.0
780.0,2900.0,14800.0,70.0,100.0,0.0,19600.0,0.0,5.0,0.0,438.0,28.0,82.0,5.0,5.0,5.0,,,,0,1.0,200.0,0,250.0,14.0,706.0,772.0,16.0,67.5,-6.0,100.0
770.0,2500.0,14300.0,70.0,80.0,0.0,0.0,0.0,5.0,10800.0,456.0,19.0,92.0,5.0,5.0,5.0,,,,0,1.0,200.0,0,250.0,14.0,487.0,563.0,27.4,77.4,-48.0,100.0
880.0,3900.0,8900.0,80.0,170.0,5700,82000.0,9600.0,1800.0,,361.0,,373.0,,,500.0,450.0,30.0,,1,2.0,200.0,1,760.0,2.0,830.0,,,,,
1000.0,3500.0,9000.0,80.0,160.0,6000.0,86000.0,9800.0,1800.0,,368.0,,398.0,,,50.0,450.0,30.0,,1,2.0,200.0,1,760.0,2.0,834.0,,,,,
1800.0,3900.0,8800.0,80.0,170.0,1800.0,102000.0,9400.0,2800,,327.0,,103.0,,,50.0,450.0,30.0,,1,2.0,200.0,1,760.0,2.0,,,,,,