File: 4 - Dataset/clustering_weld_data_with_capped_outliers.csv
Carbon concentration (ppm),Silicon concentration (ppm),Manganese concentration (ppm),Heat input (kJ/mm),Interpass temperature (deg C),Type of weld,Sulphur concentration (ppm),Phosphorus concentration (ppm),Oxygen concentration (ppm),Nitrogen concentration (ppm),Current (A),Voltage (V),Post weld heat treatment temperature (deg C),Post weld heat treatment time (hours),AC or DC,Electrode positive or negative,Nickel concentration (ppm),Chromium concentration (ppm),Molybdenum concentration (ppm),Vanadium concentration (ppm),Copper concentration (ppm),Titanium concentration (ppm),Aluminium concentration (ppm),Boron concentration (ppm),Niobium concentration (ppm),Yield strength (MPa),Ultimate tensile strength (MPa),Elongation (%),Reduction of Area (%),Charpy temperature (deg C),Charpy impact toughness (J)
0.119205,0.493506,0.368687,0.23125,0.0,2,0.482759,0.28,0.659251,0.543396,0.235669,0.259843,0.907895,0.416667,0.0,1.0,0.468392,0.57716,0.743051,0.457401,0.477353,0.661366,0.645717,0.417948,0.511197,0.417506,0.322989,0.206386,0.084567,0.609631,0.701459
0.324503,0.311688,0.186869,0.0625,0.0,0,0.241379,0.1,0.409836,0.279245,0.0700637,0.149606,0.328947,0.583333,0.0,0.0,0.41441,0.569676,0.377256,0.423428,0.430528,0.47362,0.341435,0.494292,0.301981,0.51028,0.405862,0.400195,0.62338,0.451044,0.521209
0.311258,0.272727,0.611111,0.0625,0.0,0,0.241379,0.08,0.333724,0.226415,0.0700637,0.149606,0.328947,0.583333,0.0,0.0,0.716073,0.454745,0.377256,0.423428,0.430528,0.461864,0.341435,0.494292,0.301981,0.358193,0.235016,0.654915,0.747814,0.139969,0.318426
0.271523,0.0519481,0.358586,0.225,0.0,2,0.310345,0.16,0.888759,0.286792,0.235669,0.259843,0.907895,0.416667,0.0,1.0,0.500146,0.565399,0.753603,0.451577,0.526224,0.454304,0.484942,0.678398,0.564925,0.269982,0.220991,0.566317,0.60405,0.365651,0.360673
0.304636,0.337662,0.525253,0.0625,0.0,0,0.241379,0.08,0.361827,0.226415,0.0700637,0.149606,0.0,0.0,0.0,1.0,0.502066,0.527284,0.372584,0.423428,0.454736,0.425292,0.341435,0.494292,0.301981,0.248548,0.20077,0.739492,0.593739,0.338203,0.521209
0.403974,0.545455,0.363636,0.125,0.0,0,0.37931,0.38,0.466042,1.0,0.109554,0.165354,0.0,0.0,0.0,1.0,0.484269,0.962581,0.714913,0.791308,0.44723,0.549377,0.434122,0.417411,0.368626,0.256694,0.24364,0.595349,0.730082,0.299204,0.406706
0.311258,0.38961,0.550505,0.0625,0.0,0,0.137931,0.18,0.40281,0.135849,0.0700637,0.149606,0.328947,0.583333,0.0,1.0,0.342809,0.476636,0.399894,0.355068,0.493337,0.425292,0.482905,0.425893,0.490311,0.265419,0.204417,0.582929,0.747814,0.31859,0.609969
0.271523,0.38961,0.39899,0.0625,0.0,0,0.172414,0.12,0.387588,0.241509,0.0700637,0.149606,0.0,0.0,0.0,1.0,0.314172,0.538671,0.524423,0.409051,0.472259,0.472314,0.407509,0.408463,0.326716,0.246087,0.176644,0.686167,0.645925,0.304656,0.521209
0.0463576,0.25974,0.313131,0.25,0.0,0,0.241379,0.16,0.339578,0.233962,0.0700637,0.149606,0.0,0.0,0.0,1.0,0.535686,0.214805,0.428311,0.347958,0.486456,0.565169,0.521039,0.681668,0.268987,0.423195,0.362105,0.708,0.54093,0.286358,0.521209
0.470199,0.441558,0.661616,0.421875,0.0,1,0.931034,0.16,0.339578,0.233962,0.681529,0.338583,0.789474,0.03125,0.0,1.0,0.8744,0.547035,0.553119,0.538936,0.495404,0.418761,0.498453,0.538326,0.298474,0.609136,0.447937,0.376911,0.563716,0.220185,0.471257
0.410596,0.207792,0.388889,0.0625,0.0,0,0.206897,0.22,0.537471,1.0,0.0828025,0.354331,0.986842,0.333333,0.0,1.0,0.629893,0.936921,0.7325,0.888374,0.294407,0.580078,0.52314,0.494292,0.73342,0.577198,0.524435,0.366971,0.517067,0.588283,0.521209
0.125828,0.402597,0.575758,0.0625,0.0,0,0.172414,0.2,0.339578,0.233962,0.0700637,0.149606,0.328947,0.583333,0.0,1.0,0.471335,0.625527,0.552313,0.475785,0.503837,0.506794,0.352321,0.473882,0.621912,0.329296,0.235016,0.726901,0.746606,0.193338,0.317128
0.390728,0.428571,0.666667,0.0625,0.0,0,0.344828,0.16,0.420375,0.211321,0.0828025,0.181102,0.0,0.0,0.0,1.0,0.601388,0.62752,0.747077,0.481851,0.147232,0.5755,0.365826,0.408528,0.62668,0.327775,0.289036,0.484559,0.694181,0.426646,0.690194
0.00662252,0.532468,0.257576,0.0625,0.0,0,0.413793,0.16,0.238876,0.279245,0.0828025,0.181102,0.0,0.0,0.0,1.0,0.659079,0.618764,0.4879,0.249008,0.362574,0.601623,0.424365,0.446086,0.431769,0.221314,0.25705,0.339578,0.687034,0.426646,0.6226
0.311258,0.402597,0.373737,0.0625,0.0,0,0.241379,0.06,0.314988,0.2,0.0700637,0.149606,0.328947,0.583333,0.0,1.0,0.362209,0.649105,0.461289,0.423428,0.345662,0.472314,0.341435,0.494292,0.301981,0.274545,0.198042,0.762894,0.72486,0.434216,0.643795
0.0794702,0.376623,0.373737,0.0625,0.0,0,0.172414,0.18,0.339578,0.233962,0.0700637,0.149606,0.0,0.0,0.0,1.0,0.570004,0.488641,0.388681,0.437837,0.397461,0.504356,0.427859,0.391606,0.316497,0.323926,0.226223,0.635982,0.91247,0.155014,0.540971
0.278146,0.415584,0.181818,0.0625,0.0,0,0.206897,0.08,0.354801,0.215094,0.0700637,0.149606,0.328947,0.583333,0.0,1.0,0.524374,0.510429,0.522194,0.463225,0.507501,0.474926,0.341435,0.494292,0.301981,0.263899,0.186567,0.710289,0.72486,0.380389,0.54392
0.86755,0.103896,0.388889,0.421875,0.0,1,0.896552,0.2,0.337237,0.173585,0.681529,0.338583,0.0,0.0,0.0,1.0,0.422984,0.455814,0.430015,0.432164,0.453355,0.484069,0.424365,0.493348,0.33355,0.216752,0.268165,0.455569,0.181215,0.312351,0.187907
0.470199,0.454545,0.712121,0.421875,0.0,1,0.896552,0.16,0.339578,0.233962,0.681529,0.338583,0.789474,0.03125,0.0,1.0,0.942118,0.348152,0.553119,0.577763,0.785967,0.418761,0.181228,0.397024,0.298474,0.618261,0.469611,0.398496,0.7752,0.371439,0.294205
0.119205,0.272727,0.737374,0.578125,0.0,0,0.206897,0.24,0.339578,0.233962,0.0700637,0.149606,0.0,0.0,0.0,1.0,0.531769,0.611255,0.716266,0.333069,0.473596,0.454855,0.318606,0.419146,0.226793,0.401552,0.321311,0.561451,0.740785,0.411397,0.521209
0.0794702,0.337662,0.161616,0.0625,0.0,0,0.275862,0.18,0.339578,0.233962,0.0700637,0.149606,0.328947,0.583333,0.0,1.0,0.51476,0.508201,0.401235,0.298381,0.341948,0.437855,0.39987,0.461538,0.308427,0.31865,0.209517,0.616153,0.734525,0.0600159,0.478783
0.15894,0.402597,0.787879,0.0625,0.0,0,0.206897,0.2,0.339578,0.233962,0.0700637,0.149606,0.0,0.0,0.0,1.0,0.751002,0.328393,0.469999,0.452591,0.694528,0.568357,0.316087,0.494204,0.184592,0.39217,0.279469,0.602716,0.631897,0.307706,0.521209
0.337748,0.311688,0.611111,0.0625,0.0,0,0.206897,0.08,0.355972,0.275472,0.0700637,0.149606,0.328947,0.583333,0.0,0.0,0.41441,0.511943,0.377256,0.423428,0.430528,0.425292,0.341435,0.494292,0.301981,0.467695,0.371438,0.400195,0.62338,0.213163,0.318426
0.470199,0.506494,0.348485,0.0625,0.0,0,0.0689655,0.08,0.266979,1.0,0.0382166,0.133858,0.986842,0.0833333,0.0,1.0,0.468392,0.91447,0.71843,0.849548,0.441663,0.418774,0.336567,0.556518,0.438779,0.484005,0.453587,0.493115,0.408642,0.365651,0.262098
0.337748,0.272727,0.267677,0.1796875,0.0,1,0.310345,0.16,0.339578,0.233962,0.522293,0.291339,0.921053,0.833333,0.0,1.0,0.423936,0.577694,0.746569,0.44187,0.441663,0.59209,0.606905,0.593947,0.441649,0.37188,0.314064,0.639015,0.708991,0.300601,0.479358
0.291391,0.402597,0.186869,0.0625,0.0,0,0.137931,0.04,0.346604,0.211321,0.0700637,0.149606,0.328947,0.583333,0.0,0.0,0.41441,0.454745,0.377256,0.423428,0.430528,0.468395,0.341435,0.494292,0.301981,0.212189,0.162343,0.823805,0.7309,0.213163,0.318426
0.145695,0.415584,0.767677,0.0625,0.0,0,0.206897,0.22,0.339578,0.233962,0.0700637,0.149606,0.0,0.0,0.0,1.0,0.928824,0.701103,0.717487,0.763125,0.566449,0.400585,0.336907,0.629119,0.476868,0.479337,0.462299,0.541598,0.643168,0.49984,0.521209
0.337748,0.311688,0.565657,0.421875,0.0,1,0.344828,0.26,0.24356,0.124528,0.681529,0.338583,0.0,0.0,0.0,1.0,0.423301,0.456348,0.437049,0.517582,0.455025,0.484069,0.453635,0.532244,0.403703,0.455528,0.417337,0.510943,0.459078,0.476418,0.537443
0.311258,0.61039,0.520202,0.0625,0.0,0,0.137931,0.12,0.340749,0.109434,0.0700637,0.149606,0.0,0.0,0.0,1.0,0.40313,0.247883,0.143176,0.423428,0.573319,0.474926,0.814626,0.494292,0.301981,0.279116,0.185084,0.853759,0.75581,0.152168,0.318426
0.602649,0.116883,0.459596,0.359375,0.0,1,0.0344828,0.1,0.180328,1.0,0.490446,0.275591,0.907895,1.0,1.0,0.0,0.341492,0.575556,0.728982,1.0,0.162162,0.672961,0.729419,0.618698,0.438779,0.345515,0.282855,0.502637,0.60405,0.290879,0.717558
0.403974,0.480519,0.257576,0.0625,0.0,0,0.413793,0.16,0.338407,0.0566038,0.0828025,0.181102,0.0,0.0,0.0,1.0,0.382625,0.545902,0.427232,0.392864,0.401704,0.601623,0.365826,0.288262,0.597575,0.254773,0.161366,0.524653,0.844414,0.487641,0.797218
0.735099,0.441558,0.69697,0.421875,0.0,1,0.931034,0.16,0.339578,0.233962,0.681529,0.338583,0.789474,0.03125,0.0,1.0,0.320177,0.573687,0.553119,0.432164,0.528987,0.418761,0.296223,0.574929,0.298474,0.58024,0.442837,0.843186,0.555726,0.241483,0.342319
0.172185,0.571429,0.681818,0.1875,0.0,0,0.344828,0.38,0.279859,0.271698,0.0700637,0.149606,0.815789,0.0416667,0.0,1.0,0.420761,0.418,0.567188,0.370547,0.441663,0.52215,0.239675,0.437322,0.579424,0.555906,0.459411,0.452694,0.582935,0.615953,0.592148
0.0860927,0.311688,0.555556,0.25,0.0,0,0.206897,0.2,0.339578,0.233962,0.0700637,0.149606,0.0,0.0,0.0,1.0,0.539252,0.387215,0.539994,0.412761,0.456363,0.767184,0.286056,0.664757,0.393134,0.095962,0.0445204,0.91966,0.986063,0.25281,0.521209
0.331126,0.454545,0.555556,0.0625,0.0,0,0.137931,0.18,0.367681,0.0981132,0.0700637,0.149606,0.0,0.0,0.0,1.0,0.504496,0.515436,0.369759,0.582622,0.391874,0.425292,0.58047,0.484562,0.249074,0.221487,0.207582,0.787869,0.77987,0.350402,0.521209
0.218543,0.25974,0.489899,0.21875,0.0,2,1.0,1.0,0.323185,0.935849,0.22293,0.275591,0.907895,0.416667,0.0,1.0,0.484269,0.570745,0.721948,0.771895,0.629017,0.562,0.484423,0.592182,0.238755,0.578719,0.435187,0.344821,0.181215,0.213163,0.256465
0.735099,0.376623,0.707071,0.421875,0.0,1,0.655172,0.48,0.339578,0.233962,0.681529,0.338583,0.0,0.0,0.0,1.0,0.436638,0.458273,0.443381,0.612707,0.436095,0.523254,0.492661,0.492865,0.354596,0.6502,0.563188,0.317134,0.543645,0.377171,0.369685
0.139073,0.545455,0.348485,0.1875,0.0,0,0.310345,0.3,0.364169,0.237736,0.0700637,0.149606,0.815789,0.0416667,0.0,1.0,0.423936,0.328812,0.380773,0.404557,0.441663,0.301633,0.345737,0.506031,0.352361,0.233481,0.178917,0.621177,0.884729,0.262358,0.650829
0.344371,0.571429,0.580808,0.0625,0.0,0,0.103448,0.08,0.36534,0.0943396,0.0700637,0.149606,0.0,0.0,0.0,1.0,0.511714,0.301274,0.363215,0.237751,0.546821,0.423986,0.980487,0.723046,0.345499,0.412182,0.284431,0.685664,0.511176,0.194865,0.318426
0.198675,0.337662,0.590909,0.0625,0.0,0,0.172414,0.16,0.202576,0.166038,0.0828025,0.181102,0.0,0.0,0.0,1.0,0.525902,0.308242,0.62323,0.349454,0.382581,0.536315,0.404852,0.345098,0.412074,0.320171,0.246256,0.652824,0.755969,0.487641,0.743706
0.125828,0.116883,0.39899,0.2125,0.0,2,0.448276,0.28,0.744731,0.924528,0.235669,0.259843,0.907895,0.416667,0.0,1.0,0.487444,0.562727,0.8345,0.461284,0.54554,0.719948,0.305409,0.370907,0.629743,0.370359,0.29494,0.510943,0.640293,0.365651,0.431083
0.238411,0.454545,0.636364,0.0625,0.0,4,0.137931,0.08,0.25644,0.271698,0.0700637,0.149606,0.0,0.0,0.0,1.0,0.544995,0.56927,0.697298,0.67817,0.387707,0.601623,0.252271,0.649303,0.382824,0.620901,0.490203,0.638063,0.611164,0.292457,0.521209
0.0529801,0.350649,0.383838,0.0625,0.0,0,0.206897,0.24,0.339578,0.233962,0.0700637,0.149606,0.763158,0.0833333,0.0,1.0,0.564248,0.454745,0.42939,0.377356,0.306882,0.425278,0.24458,0.745433,0.187263,0.212189,0.157243,0.760125,0.768352,0.292457,0.521209
0.264901,0.649351,0.575758,0.0625,0.0,0,0.137931,0.06,0.359485,0.139623,0.0700637,0.149606,0.0,0.0,0.0,1.0,0.300752,0.326874,0.672041,0.24378,0.301657,1.0,0.746331,0.444291,0.641479,0.097427,0.113051,0.806376,0.684557,0.234512,0.318426
0.218543,0.25974,0.489899,0.21875,0.0,2,1.0,1.0,0.323185,0.935849,0.22293,0.275591,0.907895,0.416667,0.0,1.0,0.484269,0.570745,0.721948,0.771895,0.465598,0.655332,0.497213,0.158685,0.446268,0.578719,0.435187,0.344821,0.181215,0.640129,0.439532
0.364238,0.337662,0.136364,0.28125,0.0,1,0.137931,0.12,0.618267,0.169811,0.0700637,0.149606,0.907895,0.0970833,0.0,1.0,0.425841,0.572349,0.746569,0.670182,0.450014,0.511952,0.341214,0.435798,0.540413,0.471178,0.333823,0.441105,0.616153,0.274159,0.352223
0.304636,0.402597,0.393939,0.0625,0.0,0,0.241379,0.1,0.26815,0.230189,0.0700637,0.149606,0.0,0.0,0.0,1.0,0.530121,0.393885,0.345265,0.423428,0.422625,0.601623,0.341435,0.494292,0.301981,0.361602,0.243482,0.636373,0.744798,0.289407,0.521209
0.602649,0.233766,0.489899,0.171875,0.0,1,1.0,0.34,0.339578,0.335849,0.0700637,0.149606,0.789474,0.0875,0.0,1.0,0.41441,0.454745,0.377256,0.422457,0.530742,0.418761,0.443879,0.618404,0.438779,0.230439,0.211684,0.815499,0.694657,0.484044,0.692961
0.86755,0.116883,0.39899,0.421875,0.0,1,0.931034,0.22,0.325527,0.173585,0.681529,0.338583,0.0,0.0,0.0,1.0,0.423936,0.455814,0.379015,0.432164,0.457252,0.484069,0.453635,0.438185,0.33355,0.140708,0.200592,0.649377,0.398673,0.426902,0.376099
0.403974,0.428571,0.383838,0.109375,0.0,0,0.103448,0.16,0.395785,1.0,0.0828025,0.181102,0.973684,0.0833333,0.0,1.0,0.430287,0.925161,0.739534,0.907787,0.436095,0.549377,0.434122,0.667744,0.859695,0.483001,0.496701,0.389319,0.443019,0.575379,0.278803
0.324503,0.337662,0.545455,0.0625,0.0,0,0.206897,0.1,0.319672,0.207547,0.0700637,0.149606,0.763158,0.0833333,0.0,1.0,0.476898,0.44432,0.528409,0.537966,0.505072,0.457946,0.341435,0.494292,0.301981,0.402298,0.29749,0.62169,0.700698,0.243661,0.521209
0.13245,0.38961,0.565657,0.0625,0.0,0,0.172414,0.1,0.242389,0.166038,0.0828025,0.354331,0.328947,0.583333,0.0,1.0,0.298405,0.529383,0.524958,0.241958,0.696933,0.325995,0.571132,0.197576,0.552231,0.254773,0.176367,0.765662,0.788889,0.300385,0.583868
0.364238,0.487013,0.489899,0.28125,0.0,1,0.344828,0.26,0.407494,0.245283,0.0700637,0.149606,0.723684,0.07625,0.0,1.0,0.430287,0.456722,0.512671,0.603769,0.488986,0.423505,0.608788,0.481029,0.374287,0.320171,0.303865,0.699214,0.676536,0.270516,0.0893066
0.271523,0.0519481,0.358586,0.225,0.0,2,0.310345,0.16,0.888759,0.286792,0.235669,0.259843,0.907895,0.416667,0.0,1.0,0.500146,0.565399,0.753603,0.451577,0.430072,0.575048,0.372183,0.770638,0.60544,0.269982,0.220991,0.566317,0.60405,0.609631,0.831015
0.278146,0.415584,0.181818,0.0625,0.0,0,0.206897,0.08,0.354801,0.215094,0.0700637,0.149606,0.763158,0.0833333,0.0,1.0,0.582517,0.459141,0.59953,0.463225,0.561648,0.474926,0.341435,0.494292,0.301981,0.206105,0.145768,0.754588,0.712779,0.283308,0.521209
0.311258,0.324675,0.742424,0.0625,0.0,0,0.241379,0.08,0.331382,0.267925,0.0700637,0.149606,0.328947,0.583333,0.0,1.0,0.656932,0.447338,0.390221,0.423234,0.761203,0.464477,0.341435,0.494292,0.302683,0.361234,0.260515,0.699214,0.72486,0.367829,0.564633
0.317881,0.363636,0.19697,0.0625,0.0,0,0.241379,0.16,0.380562,0.203774,0.0700637,0.149606,0.328947,0.583333,0.0,0.0,0.41441,0.509805,0.377256,0.423428,0.430528,0.46317,0.341435,0.494292,0.301981,0.346026,0.243941,0.483256,0.735733,0.319905,0.521209
0.470199,0.519481,0.267677,0.0625,0.0,0,0.689655,0.36,0.454333,0.233962,0.044586,0.409449,0.907895,0.125,0.0,1.0,0.456514,0.588386,0.799327,0.527661,0.690824,0.64523,0.596781,0.392213,0.513824,0.47682,0.396938,0.372508,0.640293,0.32893,0.414031
0.291391,0.324675,0.636364,0.0625,0.0,0,0.275862,0.1,0.336066,0.837736,0.0700637,0.149606,0.0,0.0,0.0,1.0,0.763175,0.50046,0.649808,0.502162,0.526127,0.478844,0.401999,0.563452,0.284573,0.419027,0.286015,0.591235,0.694657,0.0907442,0.427381
0.271523,0.0519481,0.358586,0.225,0.0,2,0.310345,0.16,0.888759,0.286792,0.235669,0.259843,0.907895,0.416667,0.0,1.0,0.500146,0.565399,0.753603,0.451577,0.607995,0.658393,0.565369,0.213558,0.516454,0.269982,0.220991,0.566317,0.60405,0.335154,0.318426
0.337748,0.337662,0.545455,0.421875,0.0,1,0.413793,0.24,0.337237,0.260377,0.681529,0.338583,0.789474,0.03125,0.0,1.0,0.423936,0.456348,0.379015,0.511758,0.454468,0.484069,0.560957,0.714196,0.403703,0.394693,0.386738,0.62169,0.555726,0.459241,0.597898
0.211921,0.363636,0.0,0.0625,0.0,0,0.724138,0.28,0.653396,0.233962,0.044586,0.409449,0.907895,0.125,0.0,1.0,0.369081,0.572349,0.799327,0.617826,0.607828,0.56189,0.171846,0.618216,0.450188,0.417506,0.358688,0.510943,0.579888,0.46223,0.72362
0.0198675,0.532468,0.89899,0.0625,0.0,0,0.0344828,0.16,0.220141,0.369811,0.0828025,0.181102,0.0,0.0,0.0,1.0,0.381494,0.631746,0.546783,0.670511,0.649242,0.5755,0.424365,0.423737,0.558562,0.370359,0.34535,0.446216,0.586549,0.426646,0.709909
0.403974,0.467532,0.671717,0.421875,0.0,1,0.517241,0.28,0.313817,0.222642,0.681529,0.338583,0.0,0.0,0.0,1.0,0.427112,0.457685,0.382532,0.522712,0.49177,0.619157,0.599983,0.292699,0.403703,0.37188,0.357413,0.510943,0.519483,0.438591,0.322172
0.278146,0.467532,0.186869,0.0625,0.0,0,0.241379,0.08,0.326698,0.25283,0.0700637,0.149606,0.763158,0.0833333,0.0,1.0,0.543257,0.505209,0.599544,0.506905,0.457632,0.465783,0.341435,0.494292,0.301981,0.279107,0.203142,0.575218,0.712779,0.335154,0.521209
0.304636,0.337662,0.181818,0.0625,0.0,0,0.241379,0.12,0.358314,0.222642,0.0700637,0.149606,0.328947,0.583333,0.0,0.0,0.41441,0.454745,0.739534,0.423428,0.430528,0.425292,0.341435,0.494292,0.301981,0.403819,0.321714,0.472181,0.676536,0.447994,0.521209
0.225166,0.350649,0.191919,0.0625,0.0,0,0.172414,0.14,0.398126,0.241509,0.0700637,0.149606,0.328947,0.583333,0.0,0.0,0.693845,0.454745,0.377256,0.423428,0.430528,0.468395,0.341435,0.494292,0.301981,0.244127,0.171267,0.782275,0.72486,0.234512,0.521209
0.258278,0.402597,0.39899,0.0625,0.0,0,0.172414,0.14,0.332553,0.158491,0.0700637,0.149606,0.0,0.0,0.0,1.0,0.468118,0.456188,0.46594,0.344842,0.390212,0.465783,0.659793,0.557966,0.569481,0.488299,0.397309,0.544776,0.602892,0.237561,0.521209
0.337748,0.376623,0.575758,0.0625,0.0,0,0.172414,0.14,0.351288,0.150943,0.0700637,0.149606,0.763158,0.0833333,0.0,1.0,0.368648,0.440987,0.373155,0.423428,0.439861,0.474926,0.412658,0.494292,0.301981,0.195459,0.175092,0.782275,0.747814,0.219263,0.521209
0.0529801,0.311688,0.166667,0.0625,0.0,0,0.241379,0.16,0.339578,0.233962,0.0700637,0.149606,0.0,0.0,0.0,1.0,0.637223,0.537962,0.713561,0.449552,0.231586,0.625437,0.287668,0.545214,0.493079,0.193938,0.125368,0.865335,0.768352,0.332104,0.521209
0.284768,0.415584,0.186869,0.0625,0.0,0,0.241379,0.08,0.355972,0.237736,0.0700637,0.149606,0.0,0.0,0.0,1.0,0.273957,0.562886,0.555571,0.580675,0.458645,0.46317,0.341435,0.494292,0.301981,0.444955,0.347806,0.637986,0.646312,0.304656,0.521209
0.231788,0.298701,0.590909,0.625,0.0,3,0.689655,0.44,0.5363,0.30566,0.649682,1.0,0.0,0.0,0.0,1.0,0.270044,0.442432,0.38429,0.439929,0.586416,0.415074,0.325944,0.544747,0.304672,0.190897,0.166167,0.732438,0.495321,0.426646,0.535291
0.205298,0.831169,0.368687,0.363281,0.0,1,0.517241,0.3,0.806792,0.0226415,0.681529,0.291339,0.263158,0.0416667,0.0,1.0,0.41441,0.454745,0.377256,0.422457,0.430528,0.640825,0.726818,0.309819,0.298474,0.289753,0.224816,0.64384,0.579888,0.273539,0.43617
0.536424,0.376623,0.575758,0.203125,0.0,1,0.62069,0.42,0.339578,0.233962,0.426752,0.291339,0.0,0.0,0.0,1.0,0.43505,0.459128,0.382884,0.554696,0.536309,0.492546,0.570713,0.221446,0.424748,0.239565,0.246491,0.594003,0.698674,0.405296,0.503511
0.192053,0.376623,0.181818,0.0625,0.0,0,0.206897,0.1,0.339578,0.233962,0.0700637,0.149606,0.763158,0.0833333,0.0,1.0,0.456957,0.345193,0.396098,0.162028,0.686575,0.602934,0.697414,0.480912,0.451479,0.187855,0.125368,0.826574,0.746606,0.243661,0.27618
0.602649,0.519481,0.545455,0.0625,0.0,0,0.310345,0.24,0.227166,0.128302,0.0828025,0.181102,0.0,0.0,0.0,1.0,0.655954,0.623596,0.93034,0.669288,0.411739,0.614684,0.365826,0.245873,0.594852,0.385568,0.388393,0.33955,0.571319,0.365651,0.647947
0.258278,0.363636,0.616162,0.0625,0.0,0,0.172414,0.08,0.302108,0.233962,0.0700637,0.149606,0.0,0.0,0.0,1.0,0.571236,0.599253,0.688648,0.450445,0.797979,0.471007,0.486251,0.471639,0.558362,0.381006,0.288565,0.693676,0.72486,0.511043,0.575508
0.0198675,0.532468,0.89899,0.0625,0.0,0,0.0344828,0.16,0.220141,0.369811,0.0828025,0.181102,0.0,0.0,0.0,1.0,0.330046,0.73518,0.626336,0.768247,0.367223,0.5755,0.424365,0.360057,0.680509,0.370359,0.308224,0.321861,0.721283,0.304656,0.487412
0.298013,0.272727,0.156566,0.0625,0.0,0,0.241379,0.16,0.430913,0.256604,0.0700637,0.149606,0.328947,0.583333,0.0,0.0,0.41441,0.53974,0.377256,0.423428,0.430528,0.423986,0.341435,0.494292,0.301981,0.352109,0.288565,0.427882,0.663247,0.359552,0.521209
0.0993377,0.402597,0.585859,0.0625,0.0,0,0.206897,0.24,0.339578,0.233962,0.0700637,0.149606,0.328947,0.583333,0.0,1.0,0.41441,0.812907,0.731714,0.730808,0.389124,0.330489,0.332608,0.611307,0.497429,0.312566,0.235016,0.715826,0.745398,0.361261,0.457392
0.403974,0.428571,0.383838,0.109375,0.0,0,0.103448,0.16,0.395785,1.0,0.0828025,0.181102,0.947368,0.0833333,0.0,1.0,0.430287,0.925161,0.739534,0.907787,0.436095,0.549377,0.434122,0.554905,0.859695,0.557177,0.502888,0.361089,0.34434,0.645259,0.335748
0.337748,0.376623,0.575758,0.0625,0.0,0,0.172414,0.14,0.351288,0.150943,0.0700637,0.149606,0.328947,0.583333,0.0,1.0,0.660257,0.307589,0.338202,0.423428,0.615261,0.474926,0.412658,0.494292,0.301981,0.327775,0.220991,0.765662,0.76956,0.346742,0.633018
0.264901,0.376623,0.207071,0.0625,0.0,0,0.172414,0.12,0.307963,0.173585,0.0700637,0.149606,0.328947,0.583333,0.0,0.0,0.41441,0.454745,0.46167,0.423428,0.430528,0.465783,0.341435,0.494292,0.301981,0.263899,0.194217,0.582929,0.74419,0.176566,0.318426
0.112583,0.363636,0.777778,0.0625,0.0,0,0.206897,0.26,0.339578,0.233962,0.0700637,0.149606,0.763158,0.0833333,0.0,1.0,0.928824,0.437523,0.230067,0.523945,0.339169,0.434366,0.418091,0.681378,0.107761,0.473779,0.380363,0.632765,0.64875,0.262234,0.64755
0.317881,0.298701,0.60101,0.0625,0.0,0,0.241379,0.1,0.382904,0.226415,0.0700637,0.149606,0.0,0.0,0.0,1.0,0.362837,0.359001,0.244042,0.532892,0.655522,0.455334,0.389024,0.390943,0.173748,0.317129,0.226091,0.599541,0.72486,0.296409,0.450218
0.337748,0.376623,0.575758,0.0625,0.0,0,0.172414,0.14,0.351288,0.128302,0.0700637,0.149606,0.0,0.0,0.0,1.0,0.674929,0.717729,0.551319,0.674207,0.456696,0.474926,0.412658,0.388905,0.42682,0.244933,0.17703,0.756289,0.665064,0.191815,0.318426
0.337748,0.415584,0.378788,0.363281,0.0,1,0.448276,0.24,0.446136,0.113208,0.681529,0.291339,0.263158,0.0416667,0.0,1.0,0.41441,0.454745,0.377256,0.422457,0.430528,0.424294,0.560957,0.43064,0.298474,0.175688,0.140668,0.760125,0.700698,0.284347,0.3984
0.125828,0.376623,0.570707,0.0625,0.0,0,0.206897,0.22,0.339578,0.233962,0.0700637,0.149606,0.328947,0.583333,0.0,1.0,0.928824,0.40304,0.434844,0.501044,0.58052,0.636867,0.697506,0.706781,0.470412,0.54526,0.402038,0.605078,0.675328,0.391377,0.47898
0.139073,0.441558,0.580808,0.0,0.0,0,0.206897,0.14,0.339578,0.233962,0.0700637,0.149606,0.0,0.0,0.0,1.0,0.424747,0.398438,0.394515,0.260923,0.40031,0.515355,0.459942,0.458175,0.321206,0.343191,0.187224,0.939214,1.0,0.283308,0.521209
0.291391,0.376623,0.565657,0.0625,0.0,0,0.206897,0.12,0.345433,0.169811,0.0700637,0.149606,0.0,0.0,0.0,1.0,0.322562,0.418064,0.488637,0.423428,0.658725,0.469701,0.35607,0.494292,0.301981,0.286529,0.269168,0.735583,0.831905,0.13692,0.318426
0.470199,0.25974,0.828283,0.59375,0.0,3,0.517241,0.28,0.112412,0.2,0.649682,0.956535,0.0,0.0,0.0,1.0,0.293866,0.485598,0.38429,0.44187,0.458365,0.496451,0.810421,0.481527,0.401219,0.172646,0.237566,0.815499,0.640293,0.304656,0.459247
0.298013,0.298701,0.424242,0.21875,0.0,2,0.275862,0.44,0.496487,0.34717,0.22293,0.275591,0.907895,0.416667,0.0,1.0,0.468392,0.577694,0.714913,0.457401,0.530282,0.616906,0.390198,0.579709,0.577996,0.505717,0.393113,0.566317,0.628212,0.579134,0.501494
0.271523,0.0519481,0.358586,0.225,0.0,2,0.310345,0.16,0.888759,0.286792,0.235669,0.259843,0.907895,0.416667,0.0,1.0,0.500146,0.565399,0.753603,0.451577,0.589936,0.563222,0.148248,0.592873,0.364899,0.269982,0.220991,0.566317,0.60405,0.213163,0.264914
0.15894,0.402597,0.787879,0.0625,0.0,0,0.206897,0.2,0.339578,0.233962,0.0700637,0.149606,0.763158,0.0833333,0.0,1.0,0.751002,0.635351,0.388297,0.484702,0.570995,0.336698,0.560341,0.193189,0.571059,0.393173,0.312789,0.62169,0.688617,0.429696,0.521209
0.470199,0.311688,0.59596,1.0,0.0,1,0.758621,0.7,0.339578,0.233962,0.936306,0.417323,0.328947,0.0833333,0.0,1.0,0.43505,0.457845,0.46167,0.636002,0.480635,0.484069,0.502418,0.366287,0.33355,0.726243,0.518311,0.483256,0.519483,0.322268,0.384366
0.0463576,0.25974,0.313131,0.25,0.0,0,0.241379,0.16,0.339578,0.233962,0.0700637,0.149606,0.328947,0.583333,0.0,1.0,0.566206,0.581648,0.703525,0.507995,0.588865,0.578254,0.205643,0.700737,0.37366,0.209147,0.141943,0.804424,0.768352,0.352001,0.556185
0.403974,0.454545,0.459596,0.0625,0.0,0,0.413793,0.4,0.512881,0.233962,0.044586,0.409449,0.907895,0.125,0.0,1.0,0.166972,0.58304,0.728982,0.594831,0.25308,0.900478,0.475508,0.0427565,0.455047,0.422847,0.376371,0.602691,0.650057,0.523786,0.640879
0.298013,0.363636,0.580808,0.0625,0.0,0,0.241379,0.1,0.290398,0.233962,0.0700637,0.149606,0.0,0.0,0.0,1.0,0.499886,0.448766,0.342889,0.535676,0.536309,0.471007,0.456,0.380258,0.133887,0.342984,0.254141,0.682602,0.72486,0.360682,0.486827
0.264901,0.61039,0.565657,0.0625,0.0,0,0.103448,0.12,0.289227,0.0754717,0.0700637,0.149606,0.328947,0.583333,0.0,1.0,0.584112,0.489534,0.536877,0.44683,0.792892,0.508886,0.80487,0.424469,0.413543,0.309525,0.212067,0.654915,0.72486,0.319027,0.572484
0.317881,0.324675,0.752525,0.0625,0.0,0,0.206897,0.1,0.309133,0.226415,0.0700637,0.149606,0.328947,0.583333,0.0,1.0,0.606642,0.377785,0.575718,0.423428,0.511483,0.555907,0.341435,0.494292,0.301981,0.3369,0.268165,0.627228,0.735733,0.410763,0.66931
0.397351,0.402597,0.459596,0.0625,0.0,0,0.344828,0.16,0.318501,0.196226,0.0828025,0.181102,0.0,0.0,0.0,1.0,0.19419,0.681995,0.59446,0.557286,0.435423,0.5755,0.414609,0.340952,0.320181,0.285191,0.247987,0.60268,0.507013,0.304656,0.569088
0.304636,0.324675,0.747475,0.0625,0.0,4,0.172414,0.06,0.163934,0.283019,0.0700637,0.149606,0.328947,0.583333,0.0,1.0,0.35804,0.346145,0.475211,0.276585,0.353633,0.751831,0.425145,0.110388,0.338717,0.495071,0.366338,0.632765,0.664455,0.576066,0.792774
0.390728,0.441558,0.141414,0.21875,0.0,1,0.241379,0.3,0.270492,1.0,0.426752,0.291339,1.0,0.0833333,0.0,1.0,0.579531,0.91447,0.721948,0.791308,0.494236,0.517935,0.41608,0.506446,0.649237,0.863122,0.645297,0.288784,0.499769,0.491045,0.391594
0.311258,0.285714,0.550505,0.0625,0.0,0,0.206897,0.08,0.322014,0.233962,0.0700637,0.149606,0.0,0.0,0.0,1.0,0.499787,0.517234,0.608225,0.61756,0.449455,0.45664,0.341435,0.494292,0.301981,0.362399,0.202719,0.78582,0.655799,0.25891,0.521209
0.350993,0.181818,0.242424,0.59375,0.0,3,0.448276,0.36,0.291569,0.332075,0.649682,0.956535,0.0,0.0,0.0,1.0,0.410001,0.413161,0.38429,0.432164,0.553012,0.716135,0.404391,0.311749,0.357796,0.131583,0.113894,0.89856,0.664455,0.243661,0.428267
0.258278,0.402597,0.626263,0.0625,0.0,4,0.172414,0.08,0.25644,0.249057,0.0700637,0.149606,0.0,0.0,0.0,1.0,0.448363,0.521117,0.696387,0.628705,0.719604,0.549377,0.643045,0.604544,0.472706,0.452548,0.332653,0.604947,0.604168,0.225362,0.318426
0.331126,0.454545,0.555556,0.0625,0.0,0,0.137931,0.18,0.367681,0.0981132,0.0700637,0.149606,0.328947,0.583333,0.0,1.0,0.578122,0.31446,0.438644,0.415274,0.492765,0.425292,0.58047,0.634385,0.308093,0.265419,0.218441,0.599541,0.747814,0.345942,0.581197
0.377483,0.311688,0.712121,0.625,0.0,3,0.758621,0.36,0.415691,0.211321,0.649682,1.0,0.0,0.0,0.0,1.0,0.283181,0.377472,0.380773,0.44187,0.558579,0.52976,0.524562,0.42074,0.228557,0.192418,0.251591,0.677064,0.628212,0.365651,0.462064
0.781457,0.402597,0.560606,0.0625,0.0,0,0.206897,0.1,0.339578,0.233962,0.0700637,0.149606,0.763158,0.0833333,0.0,1.0,0.741695,0.25379,0.627212,0.0,0.725184,0.717369,0.445173,0.670453,0.478854,0.381006,0.326814,0.660452,0.675328,0.365651,0.66203
0.437086,0.415584,0.393939,0.0625,0.0,0,0.206897,0.12,0.339578,0.233962,0.0700637,0.149606,0.763158,0.0833333,0.0,1.0,0.635757,0.471655,0.326257,0.254807,0.656833,0.334394,0.319698,0.471501,0.315786,0.262378,0.228641,0.843186,0.72486,0.365651,0.704276
0.238411,0.38961,0.353535,0.0625,0.0,0,0.206897,0.12,0.339578,0.233962,0.0700637,0.149606,0.763158,0.0833333,0.0,1.0,0.402005,0.417053,0.180188,0.52933,0.556533,0.501731,0.615878,0.33588,0.473287,0.236523,0.169992,0.870873,0.768352,0.304656,0.676112
0.390728,0.25974,0.39899,0.0625,0.0,0,0.206897,0.22,0.47541,0.50566,0.0828025,0.354331,0.986842,0.333333,0.0,1.0,0.627637,0.940129,0.728982,0.868961,0.328808,0.359757,0.165549,0.494292,0.691328,0.543739,0.492561,0.366971,0.504986,0.451044,0.318426
0.284768,0.38961,0.535354,0.0625,0.0,0,0.172414,0.12,0.345433,0.135849,0.0700637,0.149606,0.0,0.0,0.0,1.0,0.531104,0.427331,0.475256,0.25583,0.669249,0.666931,0.482905,0.193842,0.464502,0.481074,0.38621,0.566222,0.533103,0.231462,0.318426
0.337748,0.402597,0.191919,0.1875,0.0,0,0.310345,0.38,0.339578,0.298113,0.0700637,0.149606,0.0,0.0,0.0,1.0,0.795457,0.454745,0.377256,0.461284,0.430528,0.471007,0.482905,0.75504,0.298474,0.29097,0.216274,0.527555,0.664455,0.299882,0.408234
0.291391,0.38961,0.616162,0.0625,0.0,4,0.103448,0.1,0.309133,0.237736,0.0700637,0.149606,0.0,0.0,0.0,1.0,0.36094,0.465923,0.4417,0.300601,0.405878,0.43966,0.592608,0.411772,0.325894,0.522395,0.396175,0.531247,0.582339,0.167417,0.318426
0.430464,0.168831,0.368687,0.0625,0.0,0,0.241379,0.2,0.590164,0.524528,0.0828025,0.354331,0.986842,0.333333,0.0,1.0,0.534741,0.935318,0.739534,0.830134,0.493196,0.461429,0.341756,0.494292,0.663267,0.449445,0.431362,0.477718,0.573847,0.426646,0.380388
0.317881,0.311688,0.767677,0.0625,0.0,0,0.206897,0.08,0.359485,0.230189,0.0700637,0.149606,0.328947,0.583333,0.0,1.0,0.25336,0.340309,0.488355,0.423428,0.427215,0.427904,0.341435,0.494292,0.301981,0.297358,0.256691,0.693676,0.712779,0.288817,0.567581
0.284768,0.38961,0.535354,0.0625,0.0,0,0.172414,0.12,0.345433,0.135849,0.0700637,0.149606,0.0,0.0,0.0,1.0,0.461972,0.53766,0.271612,0.607924,0.726567,0.666931,0.482905,0.442517,0.363178,0.245597,0.235724,0.609547,0.637203,0.268059,0.521209
0.298013,0.363636,0.621212,0.0625,0.0,0,0.172414,0.08,0.284543,0.256604,0.0700637,0.149606,0.0,0.0,0.0,1.0,0.58158,0.213873,0.317914,0.176046,0.51448,0.548071,0.344362,0.621017,0.318219,0.358535,0.219959,0.794999,0.901925,0.268059,0.521209
0.298013,0.155844,0.287879,0.59375,0.0,3,0.482759,0.48,0.331382,0.237736,0.649682,0.956535,0.0,0.0,0.0,1.0,0.327871,0.431452,0.38429,0.430223,0.586416,0.605296,0.580429,0.654335,0.201342,0.136145,0.117718,0.89856,0.664455,0.365651,0.656397
0.324503,0.402597,0.378788,0.0625,0.0,0,0.206897,0.06,0.276347,0.233962,0.0700637,0.149606,0.763158,0.0833333,0.0,1.0,0.663498,0.498701,0.561437,0.423234,0.588647,0.465783,0.341435,0.494292,0.382657,0.280628,0.220991,0.743513,0.72486,0.25891,0.521209
0.245033,0.402597,0.550505,0.0625,0.0,0,0.206897,0.12,0.339578,0.233962,0.0700637,0.149606,0.763158,0.0833333,0.0,1.0,0.835461,0.555989,0.483387,0.37873,0.680932,0.58733,0.560563,0.263196,0.609292,0.292795,0.220991,0.765662,0.735733,0.243661,0.442349
0.377483,0.207792,0.373737,0.0625,0.0,0,0.206897,0.2,0.543326,0.524528,0.0828025,0.354331,0.986842,0.333333,0.0,1.0,0.620391,0.930507,0.7325,0.830134,0.283588,0.585902,0.167127,0.494292,0.656252,0.466174,0.436462,0.383583,0.552102,0.399198,0.380388
0.304636,0.415584,0.611111,0.0625,0.0,0,0.206897,0.08,0.302108,0.233962,0.0700637,0.149606,0.763158,0.0833333,0.0,1.0,0.302366,0.4727,0.566073,0.662539,0.49177,0.471007,0.349044,0.207274,0.403089,0.303441,0.231191,0.726901,0.735733,0.207925,0.710315
0.403974,0.25974,0.207071,0.46875,0.0,6,0.413793,0.08,0.454333,0.233962,0.490446,0.291339,0.907895,0.416667,0.0,1.0,0.477918,0.573418,0.739534,0.734197,0.196394,0.596475,0.434122,0.175398,0.417447,0.414465,0.331914,0.53863,0.705731,0.243661,0.340958
0.337748,0.272727,0.267677,0.1796875,0.0,1,0.310345,0.16,0.339578,0.233962,0.522293,0.291339,0.921053,0.833333,0.0,1.0,0.423936,0.577694,0.746569,0.44187,0.441663,0.267617,0.316738,0.671898,0.560374,0.402298,0.331914,0.548545,0.701357,0.335154,0.721174
0.0993377,0.402597,0.585859,0.0625,0.0,0,0.206897,0.24,0.339578,0.233962,0.0700637,0.149606,0.763158,0.0833333,0.0,1.0,0.316862,0.454745,0.356135,0.436035,0.419026,0.547132,0.385769,0.108398,0.320386,0.263899,0.206967,0.776737,0.746606,0.277208,0.521209
0.390728,0.428571,0.666667,0.0625,0.0,0,0.344828,0.16,0.420375,0.211321,0.0828025,0.181102,0.0,0.0,0.0,1.0,0.612235,0.552517,0.673121,0.52461,0.515146,0.5755,0.365826,0.550179,0.582639,0.327775,0.247378,0.828882,0.79863,0.304656,0.549373
0.337748,0.376623,0.191919,0.28125,0.0,0,0.482759,0.48,0.339578,0.449057,0.0700637,0.149606,0.789474,0.0875,0.0,1.0,0.57318,0.473454,0.38007,0.430223,0.441663,0.679992,0.380461,0.473298,0.403703,0.361691,0.298,0.530324,0.684993,0.343216,0.434275
0.264901,0.337662,0.550505,0.0625,0.0,0,0.206897,0.14,0.351288,0.177358,0.0700637,0.149606,0.0,0.0,0.0,1.0,0.519791,0.56747,0.783814,0.573684,0.397862,0.467089,0.341435,0.376312,0.434638,0.268859,0.261569,0.617611,0.547289,0.124721,0.318426
0.331126,0.688312,0.530303,0.0625,0.0,0,0.103448,0.12,0.339578,0.101887,0.0700637,0.149606,0.763158,0.0833333,0.0,1.0,0.267115,0.227179,0.435034,0.423428,0.699013,0.468395,0.931704,0.494292,0.301981,0.274545,0.233741,0.715826,0.712779,0.158268,0.318426
0.172185,0.428571,0.277778,0.46875,0.0,3,0.689655,0.12,0.65808,0.524528,0.0700637,0.149606,0.634211,0.1875,0.0,1.0,0.441718,0.588386,0.725465,0.44187,0.714467,0.484069,0.463392,0.442945,0.596357,0.780995,0.691456,0.366971,0.314106,0.451773,0.222968
0.337748,0.272727,0.267677,0.1796875,0.0,1,0.310345,0.16,0.339578,0.233962,0.522293,0.291339,0.921053,0.833333,0.0,1.0,0.423936,0.577694,0.746569,0.44187,0.441663,0.605172,0.349026,0.508347,0.589496,0.402298,0.331914,0.466014,0.473045,0.392156,0.278666
0.10596,0.350649,0.565657,0.0625,0.0,0,0.137931,0.1,0.339578,0.233962,0.0700637,0.149606,0.763158,0.0833333,0.0,1.0,0.519748,0.363434,0.492623,0.201381,0.814344,0.392733,0.479255,0.655193,0.421357,0.230439,0.172542,0.760125,0.768352,0.243661,0.467697
0.668874,0.298701,0.60101,1.0,0.0,1,0.344828,0.48,0.339578,0.233962,0.936306,0.417323,0.328947,0.0833333,0.0,1.0,0.436003,0.458059,0.468705,0.622413,0.488986,0.49713,0.482905,0.540735,0.33355,0.695826,0.543299,0.317134,0.459078,0.508475,0.399381
0.291391,0.337662,0.530303,0.0625,0.0,0,0.241379,0.1,0.314988,0.211321,0.0700637,0.149606,0.763158,0.0833333,0.0,1.0,0.592984,0.365577,0.292146,0.423428,0.441234,0.516723,0.341435,0.494292,0.301981,0.238044,0.178917,0.826574,0.76956,0.240611,0.521209
0.205298,0.363636,0.484848,0.09375,0.0,0,0.0344828,0.0,0.290398,0.222642,0.0611465,0.212598,0.947368,0.0833333,0.0,1.0,0.735125,0.903778,0.690292,0.849548,0.436095,0.549377,0.434122,0.3105,0.508932,0.550915,0.494776,0.378241,0.570736,0.532093,0.474015
0.450331,0.181818,0.368687,0.0625,0.0,0,0.206897,0.26,0.626464,1.0,0.0828025,0.354331,0.986842,0.333333,0.0,1.0,0.709722,0.941198,0.714913,0.791308,0.421892,0.791962,0.253941,0.307774,0.621176,0.408381,0.473436,0.380814,0.496529,0.311539,0.236668
0.0529801,0.337662,0.191919,0.0625,0.0,0,0.275862,0.18,0.339578,0.233962,0.0700637,0.149606,0.328947,0.583333,0.0,1.0,0.928824,0.361011,0.488319,0.454604,0.582837,0.612256,0.512988,0.563035,0.0973102,0.329296,0.247766,0.743513,0.720028,0.151504,0.513884
0.337748,0.428571,0.580808,0.0625,0.0,0,0.172414,0.14,0.359485,0.124528,0.0700637,0.149606,0.0,0.0,0.0,1.0,0.617512,0.342466,0.308084,0.423428,0.66772,0.474926,0.453635,0.494292,0.301981,0.37372,0.245155,0.645266,0.678074,0.341253,0.521209
0.311258,0.38961,0.373737,0.0625,0.0,0,0.206897,0.1,0.344262,0.203774,0.0700637,0.149606,0.328947,0.583333,0.0,1.0,0.744501,0.50313,0.325595,0.464196,0.507603,0.467089,0.341435,0.494292,0.301981,0.294316,0.213341,0.594003,0.756271,0.158356,0.259946
0.337748,0.402597,0.191919,0.1875,0.0,0,0.310345,0.38,0.339578,0.298113,0.0700637,0.149606,0.789474,0.0875,0.0,1.0,0.795457,0.454745,0.377256,0.461284,0.430528,0.471007,0.482905,0.354456,0.298474,0.615407,0.45954,0.335714,0.624937,0.330577,0.308497
0.13245,0.376623,0.79798,0.0625,0.0,0,0.172414,0.24,0.339578,0.233962,0.0700637,0.149606,0.328947,0.583333,0.0,1.0,0.576355,0.733711,0.579525,0.71148,0.41912,0.366563,0.443297,0.424242,0.419163,0.432715,0.320439,0.62169,0.69949,0.371281,0.447388
0.271523,0.571429,0.691919,0.0625,0.0,4,0.137931,0.08,0.185012,0.30566,0.0700637,0.149606,0.0,0.0,0.0,1.0,0.4916,0.365781,0.445335,0.507727,0.630326,0.693054,0.319234,0.71947,0.194798,0.205353,0.138973,0.694502,0.689392,0.194865,0.318426
0.119205,0.272727,0.737374,0.578125,0.0,0,0.206897,0.24,0.339578,0.233962,0.0700637,0.149606,0.328947,0.583333,0.0,1.0,0.509988,0.412166,0.496184,0.380447,0.753147,0.364207,0.302911,0.516324,0.29137,0.265419,0.222266,0.732438,0.746606,0.55933,0.661792
0.403974,0.142857,0.459596,0.46875,0.0,1,0.37931,0.32,0.5726,0.415094,0.55414,0.259843,0.0,0.0,0.0,1.0,0.45569,0.459021,0.387808,0.44187,0.508472,0.549377,0.385339,0.494292,0.438779,0.250211,0.192942,0.400195,0.700698,0.518139,0.436716
0.284768,0.441558,0.621212,0.0625,0.0,0,0.172414,0.16,0.186183,0.211321,0.0700637,0.149606,0.0,0.0,0.0,1.0,0.641038,0.678474,0.686644,0.750182,0.789521,0.758361,0.527428,0.624863,0.566506,0.374922,0.26944,0.632765,0.747814,0.420898,0.708756
0.403974,0.428571,0.383838,0.109375,0.0,0,0.103448,0.16,0.395785,1.0,0.0828025,0.181102,1.0,0.0833333,0.0,1.0,0.430287,0.925161,0.739534,0.907787,0.436095,0.549377,0.434122,0.363349,0.859695,0.569595,0.471754,0.522045,0.41993,0.321827,0.267655
0.602649,0.337662,0.570707,0.421875,0.0,1,0.517241,1.0,0.339578,0.233962,0.681529,0.338583,0.0,0.0,0.0,1.0,0.458866,0.460625,0.386049,0.432164,0.569714,0.558,0.482905,0.262937,0.33355,0.24869,0.245617,0.483256,0.446997,0.259376,0.266022
0.10596,0.324675,0.787879,0.0625,0.0,0,0.137931,0.12,0.339578,0.233962,0.0700637,0.149606,0.763158,0.0833333,0.0,1.0,0.425253,0.446996,0.129934,0.477734,0.515479,0.282711,0.39495,0.438678,0.0941428,0.276066,0.201867,0.726901,0.759895,0.243661,0.453615
0.311258,0.285714,0.616162,0.0625,0.0,0,0.241379,0.12,0.327869,0.256604,0.0700637,0.149606,0.328947,0.583333,0.0,0.0,0.41441,0.454745,0.465188,1.0,0.430528,0.46317,0.341435,0.494292,0.301981,0.452487,0.29749,0.594003,0.72486,0.216213,0.521209
0.139073,0.415584,0.292929,0.625,0.0,1,0.206897,0.2,0.0913349,0.222642,0.694268,0.354331,0.0,0.0,0.0,1.0,0.887544,0.484146,0.486291,0.476238,0.92603,0.471007,0.502418,0.494292,0.522962,0.514842,0.386231,0.520822,0.718355,0.0,0.0712256
0.278146,0.623377,0.590909,0.0625,0.0,0,0.137931,0.06,0.391101,0.173585,0.0700637,0.149606,0.0,0.0,0.0,1.0,0.812297,0.411398,0.870484,0.65413,0.434422,1.0,0.629252,0.622035,0.487559,0.433834,0.327734,0.662388,0.689734,0.228412,0.318426
0.536424,0.12987,0.232323,0.359375,0.0,1,0.0344828,0.06,0.142857,0.0188679,0.490446,0.275591,0.907895,0.333333,1.0,0.0,0.54651,0.577694,0.739534,0.946614,0.628486,0.649817,0.526501,0.374373,0.438779,0.577914,0.473436,0.399148,0.394871,0.304656,0.273364
0.0993377,0.402597,0.585859,0.0625,0.0,0,0.206897,0.24,0.339578,0.233962,0.0700637,0.149606,0.763158,0.0833333,0.0,1.0,0.41441,0.350104,0.225785,0.197144,0.572358,0.441487,0.768477,0.419314,0.417025,0.263899,0.206967,0.776737,0.746606,0.24976,0.521209
0.337748,0.25974,0.540404,0.625,0.0,3,0.758621,0.36,0.518735,0.245283,0.649682,1.0,0.0,0.0,0.0,1.0,0.356677,0.250099,0.528498,0.44187,0.51404,0.662798,0.469421,0.601156,0.336815,0.443361,0.238841,0.732438,0.60405,0.243661,0.284629
0.0728477,0.233766,0.272727,0.0625,0.0,0,0.275862,0.18,0.196721,0.233962,0.0636943,0.212598,0.0,0.0,0.0,2.0,0.928824,0.519126,0.351138,0.540498,0.591984,0.5755,0.352577,0.417835,0.471067,0.317129,0.29239,0.53863,0.591969,0.546033,0.711499
0.278146,0.415584,0.590909,0.0625,0.0,0,0.206897,0.06,0.282201,0.275472,0.0700637,0.149606,0.0,0.0,0.0,1.0,0.364154,0.385182,0.75642,0.476142,0.344829,1.0,0.401925,0.299939,0.401613,0.306916,0.264416,0.81804,0.74676,0.216213,0.318426
0.0860927,0.12987,0.535354,0.2125,0.0,2,0.37931,0.26,0.706089,0.811321,0.235669,0.259843,0.907895,0.416667,0.0,1.0,0.49697,0.582505,0.802845,0.451577,0.239837,0.638386,0.392903,0.23237,0.461374,0.391652,0.322989,0.455569,0.446997,0.548636,0.619783
0.278146,0.467532,0.186869,0.0625,0.0,0,0.241379,0.08,0.326698,0.25283,0.0700637,0.149606,0.0,0.0,0.0,1.0,0.501725,0.396736,0.809855,0.506905,0.397447,0.465783,0.341435,0.494292,0.301981,0.207307,0.11674,0.866999,0.870838,0.295507,0.521209
0.284768,0.363636,0.19697,0.0625,0.0,0,0.206897,0.1,0.326698,0.207547,0.0700637,0.149606,0.328947,0.583333,0.0,0.0,0.41441,0.454745,0.739534,0.423428,0.430528,0.471007,0.341435,0.494292,0.301981,0.460091,0.353589,0.555242,0.712779,0.326004,0.521209
0.0529801,0.337662,0.191919,0.0625,0.0,0,0.241379,0.2,0.339578,0.233962,0.0700637,0.149606,0.0,0.0,0.0,1.0,0.41441,0.517302,0.764033,0.723288,0.512928,0.614885,0.695442,0.713194,0.426794,0.413709,0.248328,0.623396,0.695757,0.341253,0.521209
0.10596,0.324675,0.787879,0.0625,0.0,0,0.137931,0.12,0.339578,0.233962,0.0700637,0.149606,0.763158,0.0833333,0.0,1.0,0.504689,0.714372,0.51146,0.447272,0.468157,0.427653,0.457414,0.486044,0.540895,0.276066,0.201867,0.726901,0.759895,0.487641,0.864812
0.476821,0.168831,0.378788,0.0625,0.0,0,0.241379,0.2,0.622951,1.0,0.0828025,0.354331,0.986842,0.333333,0.0,1.0,0.928824,0.942267,0.728982,0.791308,0.640339,0.535297,0.403276,0.465228,0.628191,0.622824,0.636633,0.278372,0.480824,0.518753,0.569043
0.304636,0.25974,0.575758,0.0625,0.0,0,0.172414,0.12,0.412178,0.256604,0.0700637,0.149606,0.328947,0.583333,0.0,0.0,0.41441,0.454745,0.377256,0.423428,0.990056,0.425292,0.341435,0.494292,0.301981,0.349067,0.254141,0.594003,0.700698,0.280258,0.318426
0.317881,0.363636,0.535354,0.0625,0.0,0,0.206897,0.06,0.339578,0.233962,0.0700637,0.149606,0.763158,0.0833333,0.0,1.0,0.390943,0.653652,0.572542,0.423428,0.507952,0.465783,0.341435,0.494292,0.301981,0.166563,0.166167,0.7712,0.717611,0.179616,0.521209
0.668874,0.428571,0.787879,0.0625,0.0,0,0.310345,0.18,0.217799,0.158491,0.0828025,0.181102,0.0,0.0,0.0,1.0,0.67388,0.514408,0.460529,0.399531,0.867667,0.588561,0.365826,0.478212,0.438664,0.400777,0.381906,0.458671,0.653843,0.304656,0.560638
0.291391,0.376623,0.590909,0.625,0.0,3,0.689655,0.32,0.504684,0.388679,0.649682,1.0,0.0,0.0,0.0,1.0,0.657909,0.518627,0.38429,0.439929,0.553012,0.521222,0.496002,0.461546,0.421179,0.183292,0.159793,0.732438,0.591969,0.426646,0.552189
0.218543,0.428571,0.419192,0.34375,0.0,2,0.482759,0.24,0.800937,0.181132,0.210191,0.291339,0.263158,0.583333,0.0,1.0,0.420761,0.459021,0.809524,0.451577,0.441446,0.928161,0.834139,0.494292,0.305489,0.1912,0.212067,0.55533,0.57857,0.422499,0.538315
0.0198675,0.532468,0.505051,0.0625,0.0,0,0.241379,0.16,0.221311,0.275472,0.0828025,0.181102,0.0,0.0,0.0,1.0,0.524235,0.478126,0.496391,0.447786,0.305794,0.588561,0.424365,0.376161,0.275727,0.269982,0.247092,0.454943,0.556691,0.304656,0.298711
0.284768,0.402597,0.393939,0.0625,0.0,0,0.137931,0.1,0.338407,0.196226,0.0700637,0.149606,0.763158,0.0833333,0.0,1.0,0.576474,0.496975,0.649206,0.584595,0.382885,0.467089,0.485959,0.549771,0.30106,0.328216,0.233823,0.573851,0.77135,0.219263,0.521209
0.291391,0.402597,0.186869,0.0625,0.0,0,0.137931,0.04,0.346604,0.211321,0.0700637,0.149606,0.763158,0.0833333,0.0,1.0,0.465611,0.487662,0.496407,0.42304,0.666139,0.468395,0.341435,0.494292,0.301981,0.101165,0.102419,0.909635,0.767143,0.261959,0.521209
0.231788,0.337662,0.181818,0.0625,0.0,0,0.172414,0.12,0.399297,0.184906,0.0700637,0.149606,0.328947,0.583333,0.0,0.0,0.706546,0.454745,0.377256,0.423428,0.430528,0.425292,0.341435,0.494292,0.301981,0.244127,0.171267,0.782275,0.72486,0.158268,0.318426
0.0529801,0.350649,0.383838,0.0625,0.0,0,0.206897,0.24,0.339578,0.233962,0.0700637,0.149606,0.328947,0.583333,0.0,1.0,0.71107,0.454745,0.454374,0.377727,0.493138,0.452846,0.279704,0.546214,0.355423,0.228919,0.167442,0.765662,0.768352,0.385748,0.65682
0.298013,0.415584,0.181818,0.0625,0.0,0,0.241379,0.06,0.351288,0.203774,0.0700637,0.149606,0.328947,0.583333,0.0,1.0,0.291426,0.4872,0.506827,0.538936,0.542881,0.459252,0.341435,0.494292,0.301981,0.342984,0.231191,0.610616,0.7309,0.422459,0.73547
0.0993377,0.363636,0.59596,0.0625,0.0,0,0.206897,0.22,0.339578,0.233962,0.0700637,0.149606,0.328947,0.583333,0.0,1.0,0.684778,0.467574,0.433723,0.382347,0.360449,0.55961,0.309719,0.507437,0.27433,0.361234,0.265615,0.677064,0.746606,0.17281,0.187486
0.337748,0.324675,0.535354,0.421875,0.0,1,0.310345,0.3,0.372365,0.279245,0.681529,0.338583,0.0,0.0,0.0,1.0,0.424571,0.456348,0.528498,0.519523,0.460035,0.484069,0.434122,0.615921,0.403703,0.455528,0.414787,0.483256,0.507402,0.756698,0.801463
0.337748,0.376623,0.575758,0.0625,0.0,0,0.172414,0.14,0.351288,0.128302,0.0700637,0.149606,0.328947,0.583333,0.0,1.0,0.518697,0.44423,0.370877,0.340087,0.412601,0.474926,0.412658,0.478522,0.182011,0.327775,0.220991,0.765662,0.76956,0.299192,0.663007
0.317881,0.363636,0.393939,0.0625,0.0,0,0.241379,0.08,0.313817,0.192453,0.0700637,0.149606,0.763158,0.0833333,0.0,1.0,0.55934,0.349011,0.23117,0.587469,0.539382,0.46317,0.341435,0.494292,0.301981,0.419027,0.308964,0.605078,0.700698,0.304656,0.521209
0.602649,0.12987,0.383838,0.359375,0.0,1,0.0344828,0.08,0.0398126,0.00377358,0.490446,0.275591,0.907895,1.0,1.0,0.0,0.560662,0.577694,0.739534,0.946614,0.536787,0.817296,0.458458,0.684539,0.438779,0.540716,0.419887,0.547316,0.669523,0.43079,0.373623
0.602649,0.272727,0.5,1.0,0.0,1,0.310345,0.22,0.152225,0.369811,0.936306,0.370079,0.0,0.0,0.0,1.0,0.433462,0.456348,0.428256,0.42634,0.510048,0.562438,0.348195,0.494292,0.410718,0.40534,0.312789,0.389348,0.531564,0.398439,0.467433
0.13245,0.376623,0.79798,0.0625,0.0,0,0.172414,0.24,0.339578,0.233962,0.0700637,0.149606,0.763158,0.0833333,0.0,1.0,0.576355,0.464016,0.298495,0.453042,0.30278,0.560179,0.284909,0.331479,0.379779,0.400777,0.312789,0.64384,0.675328,0.321197,0.559324
0.139073,0.467532,0.429293,0.734375,0.0,1,0.172414,0.24,0.0913349,0.184906,0.694268,0.354331,0.0,0.0,0.0,1.0,0.928824,0.482007,0.507395,0.738269,0.736737,0.49713,0.473148,0.494292,0.438779,0.426632,0.383939,0.645741,0.703252,0.156242,0.405204
0.251656,0.337662,0.191919,0.0625,0.0,0,0.206897,0.1,0.384075,0.192453,0.0700637,0.149606,0.328947,0.583333,0.0,0.0,0.928824,0.454745,0.377256,0.423428,0.430528,0.465783,0.341435,0.494292,0.301981,0.326254,0.242666,0.715826,0.736941,0.167417,0.521209
0.205298,0.584416,0.20202,0.21875,0.0,5,0.344828,0.14,0.840749,0.233962,0.490446,0.322835,0.907895,0.416667,0.0,1.0,0.481093,0.595335,0.750086,0.57827,0.693698,0.573524,0.482905,0.291054,0.105356,0.314087,0.28729,0.649377,0.602245,0.365651,0.346591
0.470199,0.233766,0.141414,0.21875,0.0,5,0.275862,0.22,0.149883,0.233962,0.490446,0.322835,0.907895,0.416667,0.0,1.0,0.481093,0.598008,0.746569,0.589513,0.815567,0.887445,0.531687,0.637856,0.477121,0.349067,0.310239,0.649377,0.724755,0.304656,0.442349