File: 4 - Dataset/new_weld_data_with_target.csv
Carbon concentration (weight%),Silicon concentration (weight%),Manganese concentration (weight%),Sulphur concentration (weight%),Phosphorus concentration (weight%),Oxygen concentration (%),Nitrogen concentration (%),Current (A),Voltage (V),Heat input (kJ/mm),Interpass temperature (deg C),Post weld heat treatment temperature (deg C),Post weld heat treatment time (hours),Nickel concentration (weight%),Chromium concentration (weight%),Molybdenum concentration (weight%),Vanadium concentration (weight%),Copper concentration (weight%),Titanium concentration (%),Aluminium concentration (%),Boron concentration (%),Niobium concentration (%),AC or DC,Electrode positive or negative,Type of weld,Yield strength (MPa),Ultimate tensile strength (MPa),Elongation (%),Reduction of Area (%),Charpy temperature (deg C),Charpy impact toughness (J),Hardness (kg/mm2),target
0.09,0.2,1.25,0.011,0.022,0.069,0.0082,150.0,37.5,1.0,300.0,690.0,3.0,1.71912,2.4,0.9,0.174189,0.148993,0.0221137,0.0515918,0.00282926,0.0432312,0.0,1.0,0.0,594.0,680.0,20.0,66.0,,,231.0,1
0.074,0.36,1.8,0.008,0.008,0.0421,0.0082,170.0,21.0,1.0,200.0,580.0,2.0,1.60899,0.121393,0.228652,0.102747,0.0908793,0.0157744,0.00664331,0.0018258,0.00786923,0.0,1.0,0.0,504.0,594.0,26.2,75.0,-20.0,161.0,,1
0.051,0.43,0.76,0.024,0.019,0.041,0.0082,150.0,37.5,1.0,300.0,690.0,3.0,0.212834,2.8,1.1,0.0803032,0.0830941,0.00597292,0.0137209,0.000990893,0.00786923,0.0,1.0,0.0,614.0,713.0,18.0,67.0,,,241.0,1
0.073,0.26,1.41,0.007,0.011,0.0392,0.0083,170.0,21.0,1.0,200.0,0.0,0.0,0.72811,1.18625,0.47247,0.0554182,0.0445828,0.009,0.007,0.00105658,0.00913189,0.0,1.0,0.0,478.0,540.0,24.2,78.9,,,,1
0.036,0.31,0.6,0.008,0.012,0.0421,0.0082,170.0,21.0,1.0,20.0,0.0,0.0,0.583541,4.76416,1.27455,0.113758,0.158549,0.0156586,0.00854516,0.00109515,0.0375851,0.0,1.0,0.0,450.0,506.0,28.8,77.8,-14.0,100.0,,1
0.069,0.3,1.36,0.007,0.009,0.0432,0.0068,170.0,21.0,1.0,200.0,0.0,0.0,0.526955,3.18257,0.852303,0.1029,0.400491,0.0037,0.0005,0.00199241,0.0237935,0.0,1.0,0.0,,,,,-72.0,100.0,,0
0.06,0.32,1.23,0.002,0.002,0.038,0.008,163.0,25.0,1.2,175.0,760.0,8.0,1.01,8.4,0.89,0.22,0.01,0.01,0.01,0.00239535,0.03,0.0,1.0,0.0,,,,,,,246.0,0
0.089,0.35,0.68,0.008,0.008,0.0421,0.0082,170.0,21.0,1.0,200.0,580.0,2.0,0.575798,1.35831,0.47247,0.018,0.276717,0.00597292,0.0183487,0.000397335,0.0140259,0.0,1.0,0.0,394.0,499.0,34.2,78.8,20.0,220.0,,1
0.065,0.26,0.61,0.007,0.007,0.0488,0.0086,170.0,21.0,1.0,200.0,250.0,14.0,2.14,0.0,0.0,0.0005,0.0,0.0005,0.0005,0.0005,0.0005,0.0,0.0,0.0,443.0,528.0,32.4,76.0,-65.0,100.0,,1
0.072,0.33,1.22,0.008,0.006,0.0447,0.0085,170.0,21.0,1.0,200.0,0.0,0.0,0.066818,1.40155,0.170665,0.019,0.0830941,0.0029,0.0005,0.0005,0.0005,0.0,1.0,0.0,,,,,-66.0,100.0,,0
0.055,0.35,1.93,0.007,0.011,0.0421,0.0082,170.0,21.0,0.6,200.0,0.0,0.0,0.775064,5.7464,0.480766,0.0752066,0.16294,0.00139835,0.007,0.000773747,0.0029758,0.0,1.0,0.0,,,,,-28.0,100.0,,-1
0.11,0.14,0.73,0.002,0.005,0.0254,0.0026,500.0,29.0,2.9,200.0,690.0,8.0,2.48863,2.3,1.03,0.27,0.534373,0.00812164,0.0408489,0.00256554,0.02,1.0,0.0,1.0,,738.0,,,-20.0,13.0,,-1
0.07,0.16,1.17,0.013,0.02,0.0368,0.0108,625.0,72.24,4.4,200.0,0.0,0.0,1.48883,0.333246,0.02,0.01,0.26,0.0113762,0.00563936,0.000593427,0.00786923,0.0,1.0,3.0,350.0,462.0,24.0,76.0,-40.0,145.0,,-1
0.043,0.3,0.69,0.006,0.007,0.0421,0.0082,170.0,21.0,1.0,200.0,580.0,2.0,0.212834,4.31011,0.72263,0.0870409,0.0830941,0.0138556,0.0136763,0.000659932,0.017119,0.0,1.0,0.0,373.0,448.0,34.4,83.0,-70.0,9.0,,-1
0.058,0.33,0.63,0.007,0.007,0.0421,0.0082,170.0,21.0,1.0,200.0,580.0,2.0,0.579234,7.53626,1.1545,0.20829,0.0830941,0.00983557,0.0170492,0.00202547,0.0254715,0.0,1.0,0.0,386.0,465.0,33.4,78.8,-20.0,178.0,,-1
0.048,0.33,1.85,0.007,0.013,0.0421,0.0082,170.0,21.0,1.0,200.0,250.0,14.0,0.209381,0.26,0.486974,0.0505701,0.243548,0.0160095,0.0212343,0.00119475,0.00786923,0.0,1.0,0.0,567.0,622.0,26.0,75.0,,,,-1
0.045,0.29,1.83,0.005,0.008,0.0421,0.0082,170.0,21.0,1.0,200.0,580.0,2.0,0.212834,0.843467,0.4177,0.018,0.343498,0.000581419,0.0101166,0.000698564,0.0143821,0.0,1.0,0.0,444.0,525.0,29.8,79.9,-70.0,36.0,,-1
0.13,0.37,1.83,0.01,0.011,0.0318,0.0063,180.0,23.0,1.0,250.0,0.0,0.0,0.212834,4.47211,0.394836,0.00943809,0.16524,0.013,0.003,0.00115099,0.0576152,0.0,1.0,0.0,526.0,,,,0.0,167.0,,-1
0.042,0.31,0.98,0.006,0.007,0.0421,0.0082,170.0,21.0,1.0,200.0,580.0,2.0,1.60748,0.508357,0.31961,0.0879875,0.0830941,0.00597292,0.0192098,0.00101687,0.012211,0.0,1.0,0.0,392.0,476.0,34.4,80.6,-50.0,74.0,,-1
0.074,0.41,1.36,0.005,0.005,0.0418,0.0049,170.0,21.0,1.0,200.0,0.0,0.0,0.522172,1.48978,0.682154,0.0663421,0.078195,0.026,0.032,0.00164917,0.00985879,0.0,1.0,0.0,,,,,-47.0,100.0,,-1
0.075,0.3,1.31,0.008,0.006,0.0441,0.0081,170.0,21.0,1.0,200.0,0.0,0.0,0.412557,1.5151,0.612357,0.0005,0.0830941,0.0005,0.0005,0.0005,0.0005,0.0,1.0,0.0,,,,,-29.0,100.0,,-1
0.08,0.25,0.8,0.01,0.01,0.0421,0.0082,525.0,30.0,1.75,210.0,700.0,20.0,0.03,2.3,1.05,0.01,0.02,0.00614082,0.00340317,0.000559257,0.0224349,0.0,1.0,1.0,527.0,627.0,,,-30.0,171.0,,-1
0.147,0.36,1.02,0.007,0.007,0.0421,0.0082,170.0,21.0,1.0,200.0,580.0,2.0,1.82954,1.35831,0.132933,0.108646,0.385161,0.00597292,0.0358934,0.000636905,0.00786923,0.0,1.0,0.0,482.0,576.0,29.4,76.9,-20.0,150.0,,-1
0.12,0.44,1.35,0.01,0.014,0.0326,0.0055,180.0,23.0,1.0,250.0,0.0,0.0,0.150696,3.07618,0.922475,0.0223633,0.448146,0.015,0.003,0.00130011,0.0296221,0.0,1.0,0.0,516.0,,,,0.0,162.0,,-1
0.071,0.4,1.55,0.013,0.019,0.0423,0.0081,550.0,30.0,2.475,250.0,200.0,1.0,0.0,0.0,0.0,0.0,0.0,0.00776561,0.02,0.000260436,0.0,0.0,1.0,1.0,442.0,547.0,28.2,73.0,,,,-1
0.072,0.38,1.5,0.006,0.01,0.0291,0.0077,170.0,21.0,1.0,200.0,0.0,0.0,0.461447,1.35831,0.428673,0.018,0.146245,0.026,0.0308409,0.00128098,0.00786923,0.0,1.0,0.0,509.0,578.0,26.4,78.9,,,,-1
0.072,0.38,1.09,0.006,0.009,0.0467,0.0085,170.0,21.0,1.0,200.0,580.0,2.0,2.14194,2.8,0.48527,0.110127,0.136765,0.0033,0.007,0.00160217,0.0239328,0.0,1.0,0.0,,,,,1.0,100.0,,-1
0.16,0.13,1.06,0.028,0.013,0.041,0.0067,650.0,33.0,3.3,300.0,0.0,0.0,0.03,0.02,0.005,0.005,0.048,0.005,0.012,0.000540768,0.005,0.0,1.0,1.0,355.0,524.0,27.0,50.0,,,,-1
0.09,0.34,0.89,0.008,0.016,0.0396,0.0096,450.0,30.0,2.0,200.0,760.0,2.0,0.17,8.2,0.94,0.02,0.0830941,0.0286728,0.007,0.00205001,0.005,0.0,1.0,1.0,660.0,,,,,,,-1
0.12,0.27,1.46,0.014,0.026,0.0365,0.0077,625.0,72.24,4.4,200.0,0.0,0.0,0.122736,1.35831,0.48,0.01,0.3,0.00597292,0.0100904,0.000773747,0.0105589,0.0,1.0,3.0,689.0,689.0,34.0,69.0,-20.0,78.0,,-1
0.076,0.51,1.3,0.005,0.008,0.0423,0.005,170.0,21.0,1.0,200.0,580.0,2.0,0.405699,1.35831,0.47247,0.0005,0.505404,0.0043,0.049,0.0005,0.0005,0.0,1.0,0.0,417.0,528.0,29.0,78.9,-84.0,28.0,,-1
0.073,0.24,1.43,0.008,0.006,0.046,0.0077,170.0,21.0,1.0,200.0,250.0,14.0,3.12,0.0,0.0,0.0005,0.0,0.0005,0.0005,0.0005,0.0005,0.0,0.0,0.0,573.0,666.0,16.0,70.8,-64.0,28.0,,-1
0.11,0.51,1.1,0.007,0.013,0.05,0.04,115.0,23.0,1.0,175.0,760.0,8.0,0.08,8.9,1.0,0.18,0.03,0.01,0.01,0.00206826,0.09,0.0,1.0,0.0,,,,,,,226.0,-1
0.071,0.36,1.46,0.004,0.006,0.04,0.0085,170.0,21.0,1.0,200.0,0.0,0.0,0.212834,8.24086,0.94686,0.224663,0.111141,0.0022,0.000580257,0.00171828,0.0225276,0.0,1.0,4.0,,,,,-65.0,100.0,,-1
0.05,0.45,0.73,0.015,0.018,0.046,0.0082,150.0,37.5,1.0,300.0,690.0,3.0,0.565157,2.8,1.1,0.0406679,0.140314,0.0111466,0.007,0.00119977,0.0247338,0.0,1.0,0.0,591.0,705.0,17.0,70.0,,,230.0,-1
0.078,0.35,1.02,0.007,0.005,0.0368,0.0083,170.0,21.0,1.0,200.0,580.0,2.0,0.360431,1.97189,1.16151,0.0004,0.0579187,0.0036,0.0005,0.0005,0.012,0.0,1.0,0.0,447.0,540.0,30.4,77.0,-55.0,100.0,,-1
0.08,0.62,1.86,0.013,0.016,0.0174,0.0054,700.0,32.0,4.8,200.0,0.0,0.0,0.01,0.05,0.01,0.01,0.81,0.023,0.022,0.001,0.0199897,0.0,1.0,1.0,523.0,714.0,30.0,53.0,-5.0,35.0,,-1
0.045,0.32,0.97,0.007,0.012,0.0421,0.0082,170.0,21.0,1.0,200.0,250.0,14.0,0.994093,1.04,0.0923924,0.0370446,0.14609,0.00602125,0.00663633,0.000848875,0.0304372,0.0,1.0,0.0,531.0,592.0,24.6,76.0,,,,-1
0.06,0.32,1.23,0.002,0.002,0.038,0.008,163.0,25.0,1.2,175.0,720.0,2.0,1.01,8.4,0.89,0.22,0.01,0.01,0.01,0.00201529,0.03,0.0,1.0,0.0,,,,,,,291.0,-1
0.037,0.3,0.65,0.008,0.012,0.0421,0.0082,170.0,21.0,1.0,200.0,0.0,0.0,0.599261,0.0,0.310222,0.0694251,0.0830941,0.00968908,0.0068475,0.00193723,0.00786923,0.0,1.0,0.0,,,,,-26.0,100.0,,-1
0.072,0.24,1.32,0.006,0.008,0.0397,0.0068,170.0,21.0,1.0,200.0,0.0,0.0,1.08399,6.61861,1.16651,0.154789,0.225816,0.018,0.0047,0.00265137,0.0553197,0.0,1.0,0.0,,,,,-54.0,28.0,,-1
0.07,0.48,1.64,0.005,0.006,0.029,0.0102,170.0,21.0,1.0,200.0,0.0,0.0,0.688698,1.35831,0.47247,0.018,0.0830941,0.021,0.000715764,0.00234255,0.0320431,0.0,1.0,4.0,,,,,-55.0,100.0,,-1
0.07,0.23,1.0,0.002,0.006,0.046,0.025,116.0,23.0,1.3,175.0,760.0,2.0,0.58,8.3,0.93,0.24,0.01,0.01,0.01,0.000681094,0.034,0.0,1.0,0.0,,,,,,,224.0,-1
0.047,0.31,1.37,0.008,0.013,0.0421,0.0082,170.0,21.0,1.0,240.0,0.0,0.0,1.65459,2.0816,0.799581,0.134969,0.658179,0.0101246,0.014681,0.00220785,0.0271943,0.0,1.0,0.0,448.0,525.0,32.0,78.8,-50.0,100.0,,-1
0.088,0.17,1.03,0.007,0.013,0.0604,0.046,180.0,34.0,1.0,175.0,750.0,8.0,0.212834,9.1,1.01,0.23,0.164598,0.00597292,0.0117384,0.0017,0.053,0.0,1.0,0.0,574.0,723.0,17.1,59.1,12.0,100.0,,-1
0.079,0.39,1.37,0.005,0.011,0.0446,0.0047,170.0,21.0,1.0,200.0,0.0,0.0,0.944538,1.35831,0.47247,0.0316237,0.0720009,0.0005,0.025,0.000749981,0.00786923,0.0,1.0,0.0,,,,,-56.0,28.0,,-1
0.05,0.38,1.11,0.005,0.014,0.022,0.007,660.0,34.0,3.3,200.0,0.0,0.0,1.89,0.52,0.37,0.0217328,0.56,0.005,0.015,0.0011,0.02,0.0,1.0,1.0,555.0,,,,,,241.0,-1
0.074,0.33,0.99,0.008,0.006,0.0393,0.0088,170.0,21.0,1.0,200.0,580.0,2.0,0.212834,3.00645,0.135635,0.0004,0.15425,0.0037,0.0005,0.0005,0.0465,0.0,1.0,0.0,540.0,616.0,22.4,75.0,-20.0,100.0,,-1
0.084,0.415,1.24,0.011,0.015,0.048,0.0086,170.0,21.0,2.4,100.0,550.0,1.83,0.05,0.037,0.385,0.018,0.105,0.00138964,0.007,0.000773747,0.00346508,0.0,1.0,1.0,473.0,605.0,28.8,73.0,,,,-1
0.046,0.3,0.93,0.008,0.012,0.0421,0.0082,170.0,21.0,1.0,200.0,250.0,14.0,1.1972,2.38,0.657986,0.101373,0.227605,0.00597292,0.007,0.000361356,0.00226112,0.0,1.0,0.0,655.0,722.0,19.6,67.5,,,,-1
0.079,0.37,1.82,0.006,0.007,0.0324,0.0081,170.0,21.0,1.0,200.0,580.0,2.0,1.20061,2.0908,1.04534,0.0005,0.0830941,0.0255,0.0005,0.0005,0.0005,0.0,1.0,0.0,474.0,575.0,29.4,78.0,-61.0,100.0,,-1
0.079,0.57,1.32,0.004,0.008,0.0422,0.0048,170.0,21.0,1.0,200.0,580.0,2.0,1.05489,1.35831,0.47247,0.0005,0.48495,0.0038,0.061,0.0005,0.0005,0.0,1.0,0.0,443.0,550.0,29.4,76.0,-88.0,28.0,,-1
0.044,0.35,1.43,0.007,0.014,0.0421,0.0082,170.0,21.0,1.0,200.0,580.0,2.0,0.0,1.70346,0.236719,0.0313495,0.341084,0.00403938,0.0104698,0.00140636,0.0184129,0.0,1.0,0.0,436.0,529.0,31.6,78.8,-58.0,100.0,,-1
0.15,0.3,1.57,0.026,0.028,0.0421,0.0082,650.0,33.0,3.3,300.0,0.0,0.0,0.07,0.059,0.11,0.122,0.093,0.006,0.017,0.0011856,0.006,0.0,1.0,1.0,661.0,,20.0,68.0,,,,-1
0.076,0.28,1.53,0.008,0.006,0.0444,0.0084,170.0,21.0,1.0,200.0,250.0,14.0,0.0,0.0,0.25,0.0005,0.0,0.0005,0.0005,0.0005,0.0005,0.0,0.0,0.0,474.0,570.0,20.4,77.0,-61.0,28.0,,-1
0.07,0.34,1.06,0.006,0.008,0.0463,0.0085,170.0,21.0,1.0,200.0,580.0,2.0,0.212834,1.57,0.231306,0.0808568,0.423389,0.0041,0.00796144,0.00102881,0.0368579,0.0,1.0,0.0,,,,,-48.0,100.0,,-1
0.069,0.33,0.68,0.006,0.008,0.0395,0.0067,170.0,21.0,1.0,200.0,250.0,14.0,0.0,0.0,0.24,0.0005,0.0,0.0036,0.0005,0.0005,0.0005,0.0,0.0,0.0,436.0,519.0,24.6,78.6,-58.0,100.0,,-1
0.048,0.33,1.85,0.007,0.013,0.0421,0.0082,170.0,21.0,1.0,200.0,0.0,0.0,0.213659,0.26,0.408664,0.018,0.0830941,0.0221143,0.00132268,0.00114116,0.0379406,0.0,1.0,0.0,,,,,,,,-1
0.1,0.22,0.55,0.009,0.013,0.026,0.0082,500.0,32.0,2.0,250.0,690.0,10.0,0.21,2.68,1.05,0.0780981,0.299673,0.0139247,0.02,0.00229848,0.0311601,0.0,1.0,5.0,492.0,610.0,27.0,,-60.0,15.0,,-1
0.06,0.32,1.23,0.002,0.002,0.038,0.008,163.0,25.0,1.2,175.0,720.0,8.0,1.01,8.4,0.89,0.22,0.01,0.01,0.01,0.00292437,0.03,0.0,1.0,0.0,,,,,,,262.0,-1
0.081,0.48,1.42,0.004,0.006,0.0444,0.0046,170.0,21.0,1.0,200.0,250.0,14.0,1.13475,1.35831,0.47314,0.156333,0.467312,0.0004,0.066,0.00138937,0.0126493,0.0,1.0,0.0,466.0,551.0,26.2,78.9,,,,-1
0.088,0.34,1.33,0.008,0.007,0.0421,0.0082,170.0,21.0,1.0,200.0,580.0,2.0,0.212834,1.94899,0.694021,0.018,0.0830941,0.0110081,0.00172833,0.000773747,0.00786923,0.0,1.0,0.0,461.0,568.0,28.6,77.9,-40.0,155.0,,-1
0.053,0.7,1.28,0.013,0.015,0.0622,0.0071,280.0,30.0,2.8,200.0,200.0,14.0,0.03,0.1,0.059303,0.015,0.0860786,0.008,0.012,0.0002,0.002,0.0,1.0,2.0,,557.0,,,,,,-1
0.12,0.33,1.41,0.011,0.031,0.0329,0.0099,170.0,24.0,2.1,107.0,0.0,0.0,1.88,0.05,0.34,0.01,0.05,0.00914209,0.00711369,0.000870262,0.00786923,0.0,1.0,0.0,808.0,875.0,16.6,,-39.0,50.0,,-1
0.077,0.32,1.33,0.007,0.005,0.0422,0.0083,170.0,21.0,1.0,200.0,250.0,14.0,0.212834,2.14458,0.797194,0.0005,0.209312,0.0036,0.0005,0.0005,0.0005,0.0,1.0,0.0,463.0,541.0,27.1,75.9,,,,-1
0.077,0.44,1.61,0.012,0.021,0.0434,0.0105,450.0,30.0,2.025,250.0,200.0,1.0,0.0,0.0,0.0,0.0,0.0,0.0180912,0.018,0.00170896,0.0,0.0,1.0,1.0,455.0,563.0,29.4,73.0,,,,-1
0.052,0.33,1.81,0.007,0.013,0.0421,0.0082,170.0,21.0,1.0,200.0,580.0,2.0,1.10975,1.1,0.47247,0.00184878,0.216682,0.00235712,0.007,0.000349487,0.00786923,0.0,1.0,0.0,592.0,671.0,22.8,72.0,28.0,100.0,,-1
0.045,0.32,0.97,0.007,0.012,0.0421,0.0082,170.0,21.0,1.0,200.0,580.0,2.0,0.212834,1.04,0.263404,0.018,0.141667,0.00473976,0.00909555,0.000607304,0.0134472,0.0,1.0,0.0,471.0,568.0,26.2,77.0,-31.0,100.0,,-1
0.06,0.32,1.23,0.002,0.002,0.038,0.008,163.0,25.0,1.2,175.0,0.0,0.0,1.01,8.4,0.89,0.22,0.01,0.01,0.01,0.00261672,0.03,0.0,1.0,0.0,,,,,,,362.0,-1
0.147,0.35,1.38,0.007,0.007,0.0421,0.0082,170.0,21.0,1.0,200.0,580.0,2.0,0.891541,6.57456,0.553419,0.26571,0.0284684,0.00597292,0.00825455,0.00153553,0.0250996,0.0,1.0,0.0,513.0,623.0,27.4,72.9,-60.0,57.0,,-1
0.07,0.31,0.66,0.006,0.008,0.043,0.0079,170.0,21.0,1.0,200.0,250.0,14.0,0.0,0.0,0.24,0.0005,0.0,0.0005,0.0005,0.0005,0.0005,0.0,0.0,0.0,433.0,518.0,26.0,78.9,-87.0,28.0,,-1
0.042,0.28,1.37,0.007,0.012,0.0421,0.0082,170.0,21.0,2.2,200.0,250.0,14.0,0.912323,2.84052,0.57712,0.12734,0.0830941,0.0085121,0.0214572,0.00111531,0.00786923,0.0,1.0,0.0,438.0,518.0,29.8,82.3,,,,-1
0.147,0.35,1.38,0.007,0.007,0.0421,0.0082,170.0,21.0,1.0,200.0,580.0,2.0,1.60855,1.35831,0.0222985,0.018,0.432906,0.0244657,0.0272796,0.00208283,0.00786923,0.0,1.0,0.0,513.0,623.0,27.4,72.9,-20.0,150.0,,-1
0.088,0.37,1.59,0.011,0.01,0.0491,0.0077,180.0,23.0,1.0,250.0,0.0,0.0,0.212834,5.5385,0.938189,0.092436,0.0830941,0.012,0.003,0.00124929,0.00654608,0.0,1.0,0.0,478.0,,,,0.0,160.0,,-1
0.066,0.56,1.14,0.01,0.011,0.0495,0.0034,280.0,30.0,2.8,200.0,200.0,14.0,0.02,0.07,0.369382,0.016,0.146261,0.003,0.004,0.0001,0.003,0.0,1.0,2.0,,533.0,,,,,,-1
0.1,0.22,0.55,0.009,0.013,0.026,0.0082,500.0,32.0,2.0,250.0,690.0,10.0,0.21,2.68,1.05,0.0179088,0.246763,0.0143153,0.02,0.00169485,0.0211522,0.0,1.0,5.0,492.0,610.0,27.0,,-20.0,147.0,,-1
0.077,0.32,1.33,0.007,0.005,0.0422,0.0083,170.0,21.0,1.0,200.0,580.0,2.0,1.09655,1.35831,0.47247,0.0005,0.0590357,0.0036,0.0005,0.0005,0.0005,0.0,1.0,0.0,372.0,497.0,31.4,76.4,-81.0,100.0,,-1
0.12,0.43,0.86,0.011,0.014,0.0329,0.0054,180.0,23.0,1.0,250.0,0.0,0.0,0.947641,1.35831,0.47247,0.018,0.239794,0.015,0.005,0.000851771,0.00786923,0.0,1.0,0.0,445.0,,,,20.0,190.0,,-1
0.074,0.32,1.5,0.006,0.006,0.0375,0.0089,170.0,21.0,1.0,200.0,250.0,14.0,1.56063,1.54831,0.47247,0.0288291,0.249313,0.0099,0.0008,0.00204015,0.0182826,0.0,1.0,0.0,484.0,547.0,29.4,79.8,,,,-1
0.1,0.18,1.6,0.015,0.029,0.0421,0.011,170.0,21.0,2.4,200.0,600.0,2.1,0.0,0.0,0.5,0.004,0.14,0.002,0.008,0.000773747,0.01,0.0,1.0,1.0,605.3,694.5,25.5,67.5,,,224.0,-1
0.047,0.42,1.0,0.015,0.016,0.0695,0.0165,300.0,28.0,2.08,150.0,690.0,10.0,0.17,2.29,1.04,0.018,0.0830941,0.00597292,0.007,0.000773747,0.0151654,0.0,1.0,2.0,537.0,620.0,11.0,24.0,60.0,164.0,,-1
0.145,0.35,1.76,0.006,0.007,0.0421,0.0082,170.0,21.0,1.0,200.0,580.0,2.0,0.591449,5.52393,1.39445,0.108158,0.0830941,0.00252871,0.0147262,0.000638061,0.00781676,0.0,1.0,0.0,567.0,679.0,24.0,69.8,-60.0,32.0,,-1
0.11,0.14,0.73,0.002,0.005,0.0254,0.0026,500.0,29.0,2.9,200.0,690.0,8.0,3.98109,2.3,1.03,0.27,0.265343,0.0115584,0.0491351,0.0022577,0.02,1.0,0.0,1.0,,738.0,,,-40.0,12.0,,-1
0.078,0.26,0.62,0.007,0.005,0.0472,0.01,170.0,21.0,1.0,200.0,250.0,14.0,0.0,1.6,0.0,0.0005,0.0,0.0029,0.0005,0.0005,0.0005,0.0,0.0,0.0,509.0,596.0,17.0,74.0,-8.0,100.0,,-1
0.1,0.19,0.53,0.007,0.007,0.022,0.0082,500.0,32.0,2.0,250.0,690.0,10.0,0.2,2.7,1.03,0.139543,0.103822,0.00222853,0.015,0.0018502,0.00449267,0.0,1.0,5.0,456.0,592.0,29.0,,0.0,238.0,,-1
0.03,0.55,0.88,0.012,0.013,0.0421,0.0082,545.0,32.0,3.7,200.0,720.0,3.5,0.212834,2.06,1.08,0.0840118,0.138802,0.00297475,0.00475447,0.00155618,0.0283249,0.0,1.0,1.0,315.0,500.0,,,,,,-1
0.089,0.35,0.68,0.008,0.008,0.0421,0.0082,170.0,21.0,1.0,200.0,580.0,2.0,1.83546,5.77001,1.10477,0.214938,0.198383,0.00128282,0.0120423,0.00262761,0.0322925,0.0,1.0,0.0,394.0,499.0,34.2,78.8,-20.0,157.0,,-1
0.11,0.16,1.09,0.012,0.018,0.0353,0.0078,625.0,72.24,4.4,200.0,0.0,0.0,0.729909,1.35831,0.03,0.01,0.24,0.015065,0.0158094,0.000497774,0.00786923,0.0,1.0,3.0,376.0,484.0,32.0,74.0,0.0,138.0,,-1
0.071,0.4,0.64,0.008,0.006,0.0411,0.0088,170.0,21.0,1.0,200.0,250.0,14.0,0.441552,0.226173,0.0737598,0.0435,0.0867211,0.0036,0.0005,0.0005,0.0005,0.0,1.0,0.0,478.0,546.0,28.2,78.0,,,,-1
0.07,0.26,1.24,0.013,0.025,0.0365,0.0119,170.0,24.0,2.1,107.0,0.0,0.0,1.9,0.05,0.34,0.01,0.06,0.0091864,0.00744553,0.000607528,0.00786923,0.0,1.0,0.0,768.0,807.0,20.0,,-72.0,50.0,,-1
0.076,0.28,0.64,0.008,0.008,0.0492,0.0081,170.0,21.0,1.0,200.0,250.0,14.0,0.0,2.1,0.0,0.0005,0.0,0.0008,0.0005,0.0005,0.0005,0.0,0.0,0.0,565.0,660.0,,68.6,26.0,100.0,,-1
0.069,0.53,0.58,0.018,0.014,0.043,0.0082,150.0,37.5,1.0,300.0,690.0,3.0,0.212834,2.6,1.1,0.018,0.0830941,0.0143151,0.007,0.00097836,0.0319228,0.0,1.0,0.0,593.0,698.0,17.0,67.0,,,231.0,-1
0.06,0.32,1.23,0.002,0.002,0.038,0.008,163.0,25.0,1.2,175.0,740.0,8.0,1.01,8.4,0.89,0.22,0.01,0.01,0.01,0.00272851,0.03,0.0,1.0,0.0,,,,,,,253.0,-1
0.078,0.31,1.75,0.007,0.006,0.0417,0.0094,170.0,21.0,1.0,200.0,250.0,14.0,0.660652,0.715265,0.0101443,0.0005,0.126535,0.0036,0.0005,0.0005,0.0005,0.0,1.0,0.0,500.0,571.0,28.8,77.0,,,,-1
0.074,0.36,1.51,0.008,0.011,0.04,0.0082,170.0,21.0,1.0,150.0,580.0,2.0,0.390727,2.77906,0.595123,0.0972097,0.02,0.004,0.0109902,9.82325e-05,0.0079217,0.0,1.0,0.0,471.0,563.0,31.2,77.0,,,,-1
0.048,0.13,1.06,0.014,0.016,0.0768,0.0266,300.0,28.0,1.96,150.0,690.0,10.0,0.23,2.02,1.3,0.02,0.0830941,0.00793697,0.007,0.00153596,0.00786923,0.0,1.0,2.0,506.0,598.0,22.0,70.0,-40.0,15.0,,-1
0.08,0.33,1.41,0.006,0.009,0.0432,0.0055,170.0,21.0,1.0,200.0,0.0,0.0,0.212834,5.01679,1.10002,0.0856845,0.0830941,0.0043,0.0078,0.00133256,0.0195385,0.0,1.0,0.0,,,,,-55.0,100.0,,-1
0.12,0.33,1.47,0.014,0.014,0.04,0.0136,650.0,33.0,3.3,300.0,600.0,0.75,0.06,0.05,0.39,0.055,0.11,0.005,0.015,0.00148706,0.005,0.0,1.0,1.0,613.0,747.0,24.0,64.0,,,,-1
0.077,0.31,1.33,0.007,0.005,0.0419,0.008,170.0,21.0,1.0,200.0,250.0,14.0,0.212834,0.692876,0.403636,0.0004,0.0130754,0.0038,0.0005,0.0005,0.0006,0.0,1.0,0.0,463.0,541.0,27.1,75.9,,,,-1
0.078,0.44,1.31,0.005,0.008,0.0431,0.0052,170.0,21.0,1.0,200.0,0.0,0.0,0.227058,1.35831,0.0416235,0.0005,0.0658631,0.0036,0.034,0.0005,0.0005,0.0,1.0,0.0,,,,,-63.0,100.0,,-1
0.077,0.34,1.39,0.007,0.007,0.0409,0.0099,170.0,21.0,1.0,200.0,250.0,14.0,0.212834,1.14236,0.569511,0.0004,0.00802372,0.0032,0.0005,0.0005,0.0455,0.0,1.0,0.0,586.0,641.0,24.2,76.0,,,,-1
0.05,0.4,1.12,0.006,0.014,0.021,0.007,660.0,34.0,5.3,200.0,0.0,0.0,1.9,0.51,0.37,0.0656044,0.55,0.006,0.014,0.0011,0.02,0.0,1.0,1.0,543.0,,,,,,229.0,-1
0.08,0.33,1.41,0.006,0.009,0.0432,0.0061,170.0,21.0,1.0,200.0,0.0,0.0,1.16704,1.35831,0.810007,0.0005,0.175238,0.0043,0.0078,0.0005,0.0005,0.0,1.0,0.0,,,,,-55.0,100.0,,-1
0.147,0.36,1.02,0.007,0.007,0.0421,0.0082,170.0,21.0,1.0,200.0,580.0,2.0,0.35559,1.35831,0.47247,0.018,0.208294,0.0188088,0.0126543,0.00209271,0.00786923,0.0,1.0,0.0,482.0,576.0,29.4,76.9,-50.0,63.0,,-1
0.072,0.38,1.09,0.006,0.009,0.0467,0.0085,170.0,21.0,1.0,200.0,0.0,0.0,1.15672,2.8,0.561411,0.0619397,0.0830941,0.0033,0.0146368,0.000602024,0.027453,0.0,1.0,0.0,,,,,20.0,100.0,,-1
0.1,0.39,1.68,0.027,0.01,0.0421,0.0082,650.0,33.0,3.3,300.0,600.0,0.75,0.882397,2.8993,0.5,0.08,0.250586,0.0,0.00459162,0.000779443,0.0,0.0,1.0,1.0,669.0,735.0,,,,,,-1
0.08,0.39,1.37,0.007,0.006,0.032,0.009,170.0,21.0,1.0,200.0,0.0,0.0,0.316018,1.95725,0.712967,0.0005,0.0478339,0.0215,0.0005,0.0005,0.0005,0.0,1.0,0.0,,,,,-54.0,100.0,,-1
0.081,0.48,1.42,0.004,0.006,0.0444,0.0046,170.0,21.0,1.0,200.0,0.0,0.0,1.24526,1.35831,0.220539,0.018,0.489007,0.0004,0.066,0.000737877,0.00786923,0.0,1.0,0.0,,,,,-76.0,28.0,,-1
0.091,0.2,1.04,0.007,0.013,0.0591,0.048,180.0,34.0,1.0,175.0,750.0,8.0,0.432268,9.02,1.01,0.24,0.197548,0.0226304,0.0309631,0.0032,0.062,0.0,1.0,0.0,642.0,778.0,16.8,59.8,53.0,100.0,,-1
0.037,0.31,1.03,0.007,0.014,0.0421,0.0082,170.0,21.0,1.0,200.0,0.0,0.0,0.212834,0.0,0.440788,0.018,0.377133,0.00597292,0.0032858,0.000773747,0.00214506,0.0,1.0,0.0,,,,,-47.0,100.0,,-1
0.095,0.35,0.9,0.008,0.02,0.0269,0.0054,450.0,30.0,2.025,250.0,200.0,1.0,0.0,0.0,0.0,0.0,0.0,0.00390726,0.017,0.000773747,0.0,0.0,1.0,1.0,408.0,501.0,32.6,77.0,,,,-1
0.041,0.31,0.98,0.008,0.012,0.0421,0.0082,170.0,21.0,1.0,200.0,0.0,0.0,3.46,3.46282,0.649958,0.148253,0.508297,0.0225912,0.0133788,0.00216633,0.050678,0.0,1.0,0.0,,,,,-48.0,100.0,,-1
0.08,0.28,1.48,0.007,0.006,0.0436,0.0094,170.0,21.0,1.0,200.0,250.0,14.0,0.0,1.07,0.0,0.0005,0.0,0.0005,0.0005,0.0005,0.0005,0.0,0.0,0.0,570.0,658.0,18.0,68.6,-70.0,28.0,,-1
0.05,0.36,0.85,0.007,0.012,0.021,0.008,660.0,34.0,4.6,200.0,0.0,0.0,1.49,0.55,0.31,0.118856,0.89,0.004,0.017,0.0019,0.032,0.0,1.0,1.0,601.0,,,,,,223.0,-1
0.07,0.29,1.5,0.008,0.009,0.0341,0.0164,170.0,21.0,1.0,200.0,0.0,0.0,1.75823,0.356024,0.473945,0.0259921,0.254084,0.012,0.00382904,0.0015899,0.00511755,0.0,1.0,0.0,513.0,573.0,25.2,76.0,,,,-1
0.098,0.39,2.25,0.008,0.014,0.033,0.0088,180.0,23.0,1.0,250.0,0.0,0.0,0.134,1.35831,0.082796,0.018,0.132931,0.013,0.003,0.00108138,0.00786923,0.0,1.0,0.0,541.0,,,,-20.0,126.0,,-1
0.05,0.39,1.1,0.006,0.013,0.022,0.007,660.0,34.0,2.0,200.0,0.0,0.0,1.87,0.53,0.37,0.0959736,0.57,0.006,0.016,0.0012,0.021,0.0,1.0,1.0,592.0,,,,,,252.0,-1
0.12,0.44,1.35,0.01,0.014,0.0326,0.0055,180.0,23.0,1.0,250.0,0.0,0.0,0.212834,2.48986,0.574018,0.0245508,0.0650889,0.015,0.003,0.00146171,0.00999413,0.0,1.0,0.0,516.0,,,,20.0,176.0,,-1
0.05,0.18,0.63,0.015,0.018,0.075,0.0082,150.0,37.5,1.0,300.0,690.0,3.0,0.212834,2.0,1.01482,0.00213096,0.0830941,0.00597292,0.007,0.000469379,0.0253318,0.0,1.0,0.0,543.0,649.0,20.0,71.0,,,217.0,-1
0.077,0.29,1.77,0.008,0.009,0.0432,0.0097,170.0,21.0,1.0,200.0,580.0,2.0,0.372464,4.5333,0.163999,0.0004,0.0830941,0.0031,0.0005,0.0005,0.045,0.0,1.0,0.0,577.0,661.0,21.6,71.9,-15.0,100.0,,-1
0.066,0.35,1.36,0.007,0.008,0.0421,0.0082,170.0,21.0,1.0,200.0,580.0,2.0,1.56139,4.58678,1.04108,0.115441,0.0830941,0.0129966,0.00528599,0.00208988,0.0237638,0.0,1.0,0.0,455.0,540.0,31.2,77.9,-60.0,72.0,,-1
0.091,0.16,1.0,0.008,0.015,0.0666,0.052,180.0,34.0,1.0,175.0,750.0,8.0,0.0,9.3,0.98,0.19,0.0741862,0.022028,0.000768972,0.00244371,0.041,0.0,1.0,0.0,481.0,672.0,23.7,66.7,,,,-1
0.063,0.31,0.65,0.006,0.009,0.0472,0.0085,170.0,21.0,1.0,200.0,250.0,14.0,0.88,0.0,0.0,0.0005,0.0,0.0038,0.0005,0.0005,0.0005,0.0,0.0,0.0,423.0,501.0,31.8,77.0,-63.0,100.0,,-1
0.075,0.26,1.46,0.008,0.006,0.0418,0.0072,170.0,21.0,1.0,200.0,250.0,14.0,3.15,0.0,0.0,0.0005,0.0,0.0032,0.0005,0.0005,0.0005,0.0,0.0,0.0,604.0,680.0,20.0,71.9,-95.0,28.0,,-1
0.076,0.33,1.04,0.007,0.006,0.0429,0.007,170.0,21.0,1.0,200.0,250.0,14.0,0.688579,1.42578,0.262277,0.061,0.0259531,0.0031,0.0005,0.0005,0.0005,0.0,1.0,0.0,509.0,576.0,25.6,77.4,,,,-1
0.074,0.29,1.49,0.006,0.013,0.0471,0.0072,170.0,21.0,1.0,200.0,0.0,0.0,0.179493,1.35831,0.47247,0.018,0.0830941,0.0005,0.0006,0.000773747,0.00786923,0.0,1.0,0.0,,,,,-41.0,28.0,,-1
0.079,0.57,1.32,0.004,0.008,0.0422,0.0052,170.0,21.0,1.0,200.0,0.0,0.0,2.12215,1.35831,0.43384,0.215077,0.881831,0.0038,0.061,0.000929168,0.0075376,0.0,1.0,0.0,,,,,-38.0,100.0,,-1
0.07,0.35,0.65,0.008,0.01,0.0504,0.0078,170.0,21.0,1.0,200.0,250.0,14.0,0.0,1.01,0.0,0.0005,0.0,0.0005,0.0005,0.0005,0.0005,0.0,0.0,0.0,481.0,559.0,22.0,75.0,-40.0,100.0,,-1
0.08,0.25,0.8,0.01,0.01,0.0421,0.0082,525.0,30.0,1.75,210.0,700.0,20.0,0.03,2.3,1.05,0.01,0.02,0.0166663,0.0140063,0.00118382,0.036301,0.0,1.0,1.0,507.0,613.0,,,-30.0,170.0,,-1
0.065,0.34,0.97,0.007,0.008,0.0421,0.0082,170.0,21.0,1.0,200.0,580.0,2.0,0.0629639,1.35831,0.335349,0.018,0.125832,0.00114615,0.00248209,0.000773747,0.00786923,0.0,1.0,0.0,418.0,500.0,35.0,80.6,-20.0,201.0,,-1
0.071,0.4,0.64,0.008,0.006,0.0411,0.0088,170.0,21.0,1.0,200.0,0.0,0.0,1.51229,1.48849,0.617094,0.0435,0.0830941,0.0036,0.0005,0.0005,0.0005,0.0,1.0,0.0,,,,,-43.0,100.0,,-1
0.055,0.35,1.93,0.007,0.011,0.0421,0.0082,170.0,21.0,0.6,200.0,250.0,14.0,0.212834,1.92055,0.47247,0.0254585,0.0830941,0.00597292,0.007,0.000773747,0.00183434,0.0,1.0,0.0,587.0,633.0,24.2,76.9,,,,-1
0.03,0.45,0.78,0.013,0.01,0.0336,0.0095,180.0,23.0,1.0,250.0,0.0,0.0,0.660097,5.89902,1.35737,0.0956986,0.196131,0.014,0.009,0.0021003,0.0483249,0.0,1.0,0.0,408.0,,,,-60.0,5.0,,-1
0.076,0.37,1.36,0.005,0.009,0.0422,0.0054,170.0,21.0,1.0,200.0,0.0,0.0,0.154867,1.35831,0.488566,0.0005,0.245699,0.0036,0.019,0.0005,0.0005,0.0,1.0,0.0,,,,,-58.0,100.0,,-1
0.055,0.48,1.62,0.011,0.021,0.0371,0.0093,170.0,21.0,1.8,100.0,250.0,16.0,0.02,4.564,0.54,0.0863244,0.02,0.00597292,0.00219417,0.000169379,0.0410283,0.0,1.0,0.0,673.0,737.0,,,,,,-1
0.051,0.36,1.79,0.007,0.013,0.0421,0.0082,170.0,21.0,1.0,200.0,580.0,2.0,3.42,1.18899,0.669863,0.0675594,0.155145,0.014931,0.0128846,0.00175685,0.00120929,0.0,1.0,0.0,662.0,745.0,24.0,67.5,,,,-1
0.11,0.51,1.1,0.007,0.013,0.05,0.04,115.0,23.0,1.0,175.0,720.0,8.0,0.08,8.9,1.0,0.18,0.03,0.01,0.01,0.00316318,0.09,0.0,1.0,0.0,,,,,,,254.0,-1
0.037,0.3,0.65,0.009,0.011,0.0421,0.0082,170.0,21.0,1.0,200.0,250.0,14.0,3.5,3.30606,0.875285,0.160443,0.0830941,0.0117963,0.00999487,0.00225758,0.0279247,0.0,1.0,0.0,479.0,561.0,30.4,76.6,,,,-1
0.12,0.43,0.86,0.011,0.014,0.0329,0.0054,180.0,23.0,1.0,250.0,0.0,0.0,0.238221,1.06863,0.47247,0.00441744,0.254113,0.015,0.005,0.00129016,0.0271651,0.0,1.0,0.0,445.0,,,,0.0,183.0,,-1
0.037,0.3,0.65,0.008,0.012,0.0421,0.0082,170.0,21.0,1.0,200.0,250.0,14.0,0.0,1.35831,0.87005,0.018,0.183607,0.0170158,0.0296203,0.00173859,0.00786923,0.0,1.0,0.0,392.0,466.0,31.9,80.6,,,,-1
0.14,0.38,1.65,0.028,0.01,0.0421,0.0082,650.0,33.0,3.3,300.0,600.0,0.75,0.23115,1.37871,0.5,0.005,0.0403452,0.0,0.00105728,0.000773747,0.0,0.0,1.0,1.0,644.0,714.0,34.0,63.0,,,,-1
0.045,0.31,1.39,0.005,0.007,0.0421,0.0082,170.0,21.0,1.0,200.0,580.0,2.0,0.466634,0.649919,0.557789,0.0476755,0.0287784,0.00597292,0.0210223,0.00119224,0.0327575,0.0,1.0,0.0,414.0,502.0,31.0,80.6,-50.0,129.0,,-1
0.048,0.35,1.41,0.006,0.012,0.0421,0.0082,170.0,21.0,1.0,200.0,0.0,0.0,0.160202,5.10456,0.582305,0.171056,0.00158568,0.0170885,0.0258457,0.00246755,0.0451626,0.0,1.0,0.0,,,,,-54.0,100.0,,-1
0.066,0.8,1.12,0.017,0.021,0.0774,0.0026,550.0,30.0,2.475,250.0,200.0,1.0,0.0,0.0,0.0,0.0,0.0,0.00851113,0.033,0.000958224,0.0,0.0,1.0,1.0,455.0,558.0,28.2,69.0,,,,-1
0.069,0.45,1.36,0.005,0.008,0.0374,0.0044,170.0,21.0,1.0,200.0,0.0,0.0,1.50809,3.74649,0.991891,0.136946,0.188064,0.0063,0.028,0.0022388,0.0292914,0.0,1.0,0.0,,,,,-68.0,28.0,,-1
0.045,0.33,1.85,0.007,0.016,0.0421,0.0082,170.0,21.0,1.0,200.0,0.0,0.0,1.82783,0.0,0.547731,0.0892859,0.428169,0.00873953,0.0288809,0.00213697,0.00786923,0.0,1.0,0.0,,,,,-45.0,100.0,,-1
0.075,0.3,0.63,0.008,0.008,0.0438,0.008,170.0,21.0,1.0,200.0,250.0,14.0,0.0,0.0,1.03,0.0005,0.0,0.0005,0.0005,0.0005,0.0005,0.0,0.0,0.0,528.0,619.0,20.6,73.0,7.0,100.0,,-1
0.08,0.33,1.41,0.006,0.009,0.0432,0.0055,170.0,21.0,1.0,200.0,250.0,14.0,1.05034,2.31949,0.834219,0.0229423,0.248062,0.0043,0.0078,0.000352708,0.0192398,0.0,1.0,0.0,478.0,540.0,31.2,80.7,,,,-1
0.07,0.34,0.95,0.027,0.021,0.0421,0.009,170.0,21.0,2.7,250.0,0.0,0.0,0.0,0.0,0.0,0.006,0.0,0.007,0.0035,9.67311e-05,0.006,0.0,1.0,0.0,456.2,529.8,27.5,73.0,,,180.0,-1
0.069,0.51,1.39,0.004,0.008,0.0379,0.0041,170.0,21.0,1.0,200.0,0.0,0.0,1.50188,1.35831,0.485271,0.145499,0.866818,0.0069,0.048,0.00200049,0.0153501,0.0,1.0,0.0,,,,,-54.0,100.0,,-1
0.051,0.32,1.8,0.006,0.012,0.0421,0.0082,170.0,21.0,1.0,200.0,250.0,14.0,0.896755,3.84498,0.691889,0.126501,0.119955,0.00354975,0.015219,0.000922237,0.0121978,0.0,1.0,0.0,507.0,587.0,29.2,76.9,,,,-1
0.073,0.34,1.49,0.004,0.007,0.0396,0.0084,170.0,21.0,1.0,200.0,0.0,0.0,0.447483,1.67675,0.576969,0.140853,0.259821,0.0016,0.0162608,0.00119094,0.00786923,0.0,1.0,4.0,,,,,-59.0,100.0,,-1
0.07,0.28,1.45,0.009,0.009,0.0315,0.0239,170.0,21.0,1.0,200.0,0.0,0.0,0.910094,2.06522,0.860409,0.107381,0.326202,0.012,0.0153837,0.00118373,0.0157012,0.0,1.0,0.0,523.0,599.0,29.2,77.0,,,,-1
0.029,0.55,1.08,0.011,0.008,0.0342,0.0072,190.0,23.0,1.0925,250.0,200.0,1.0,0.0,0.0,0.0,0.0,0.0,0.00763607,0.002,0.00102277,0.0,0.0,1.0,0.0,437.0,509.0,31.4,80.0,,,,-1
0.075,0.3,1.31,0.008,0.006,0.0441,0.0081,170.0,21.0,1.0,200.0,580.0,2.0,1.12736,1.35831,0.936496,0.0005,0.350367,0.0005,0.0005,0.0005,0.0005,0.0,1.0,0.0,359.0,480.0,29.6,78.6,-72.0,100.0,,-1
0.074,0.27,1.11,0.009,0.024,0.0556,0.0113,290.0,29.0,2.0,150.0,690.0,10.0,0.17,2.3,0.96,0.018,0.0830941,0.00471423,0.007,0.00136753,0.0144701,0.0,1.0,2.0,595.0,675.0,24.0,69.0,0.0,31.0,,-1
0.088,0.17,1.03,0.007,0.013,0.0604,0.046,180.0,34.0,1.0,175.0,750.0,8.0,0.74792,9.1,1.01,0.23,0.124928,0.0125613,0.0112647,0.0017,0.053,0.0,1.0,0.0,574.0,723.0,17.1,59.1,-17.0,50.0,,-1
0.08,0.62,1.85,0.013,0.017,0.0152,0.0052,700.0,32.0,4.8,200.0,0.0,0.0,0.45,0.05,0.01,0.01,0.81,0.022,0.024,0.001,0.0511326,0.0,1.0,1.0,504.0,743.0,27.0,46.0,18.0,35.0,,-1
0.09,0.37,1.03,0.004,0.01,0.047,0.037,180.0,23.0,1.3,175.0,740.0,8.0,0.05,8.8,1.03,0.25,0.01,0.01,0.01,0.00269717,0.08,0.0,1.0,0.0,,,,,,,225.0,-1
0.039,0.29,0.94,0.007,0.011,0.0421,0.0082,170.0,21.0,1.0,200.0,250.0,14.0,0.636076,1.35831,0.47247,0.0132412,0.426688,0.00597292,0.00897232,0.00075121,0.00786923,0.0,1.0,0.0,438.0,501.0,32.6,80.6,,,,-1
0.06,0.34,1.08,0.007,0.014,0.048,0.011,116.0,23.0,1.3,175.0,760.0,2.0,0.69,9.0,1.03,0.29,0.02,0.01,0.01,0.00309431,0.01,0.0,1.0,0.0,,,,,,,204.0,-1
0.043,0.3,0.69,0.006,0.007,0.0421,0.0082,170.0,21.0,1.0,200.0,580.0,2.0,0.960354,1.35831,0.47247,0.100273,0.0515707,0.0127732,0.0292641,0.00194342,0.00786923,0.0,1.0,0.0,373.0,448.0,34.4,83.0,20.0,222.0,,-1
0.07,0.08,0.98,0.01,0.01,0.0891,0.0097,300.0,28.0,2.04,150.0,690.0,10.0,0.27,2.07,1.07,0.015,0.188803,0.0071651,0.0100154,0.00111786,0.036878,0.0,1.0,2.0,440.0,540.0,24.0,67.0,-20.0,43.0,,-1
0.078,0.31,1.75,0.007,0.006,0.0417,0.0094,170.0,21.0,1.0,200.0,0.0,0.0,0.921524,1.35831,0.47247,0.0005,0.086063,0.0036,0.0005,0.0005,0.0005,0.0,1.0,0.0,,,,,-62.0,100.0,,-1
0.078,0.3,1.76,0.007,0.007,0.0433,0.011,170.0,21.0,1.0,200.0,250.0,14.0,0.212834,3.73516,1.41583,0.0004,0.00974885,0.0032,0.0005,0.0005,0.023,0.0,1.0,0.0,575.0,635.0,22.6,74.0,,,,-1
0.077,0.35,1.02,0.007,0.005,0.0399,0.0075,170.0,21.0,1.0,200.0,580.0,2.0,0.212834,0.136237,0.413282,0.0004,0.0830941,0.0041,0.0005,0.0005,0.0005,0.0,1.0,0.0,332.0,461.0,33.3,80.3,-80.0,100.0,,-1
0.09,0.34,0.48,0.004,0.011,0.0421,0.026,390.0,11.5,1.9,177.0,746.0,4.0,0.08,8.6,0.98,0.22,0.05,0.002,5e-07,0.001,0.0581719,0.0,1.0,8.0,647.0,747.0,20.0,68.0,,,,-1
0.11,0.36,2.18,0.008,0.011,0.0342,0.0074,180.0,23.0,1.0,250.0,0.0,0.0,0.212834,3.05067,1.05345,0.0381941,0.112646,0.012,0.003,0.000713835,0.00282205,0.0,1.0,0.0,617.0,,,,-20.0,107.0,,-1
0.048,0.33,1.4,0.007,0.013,0.0421,0.0082,170.0,21.0,1.0,200.0,250.0,14.0,3.47,0.980277,0.617625,0.082684,0.246427,0.00636364,0.0101946,0.00148781,0.00786923,0.0,1.0,0.0,621.0,682.0,25.4,72.9,,,,-1
0.045,0.29,1.83,0.005,0.008,0.0421,0.0082,170.0,21.0,1.0,200.0,580.0,2.0,0.0655764,3.43046,0.469826,0.0891042,0.176283,0.0221571,0.00357692,0.00187249,0.0140327,0.0,1.0,0.0,444.0,525.0,29.8,79.9,-50.0,117.0,,-1
0.069,0.3,1.36,0.007,0.009,0.0432,0.0067,170.0,21.0,1.0,200.0,0.0,0.0,0.545602,1.35831,0.646194,0.0005,0.227269,0.0037,0.0005,0.0005,0.0005,0.0,1.0,0.0,,,,,-72.0,100.0,,-1
0.045,0.33,1.85,0.007,0.016,0.0421,0.0082,170.0,21.0,1.0,200.0,250.0,14.0,0.0,0.615758,0.292153,0.0327178,0.0830941,0.00597292,0.00110333,0.000442469,0.00786923,0.0,1.0,0.0,514.0,588.0,28.0,76.8,,,,-1
0.084,0.3,0.54,0.005,0.008,0.066,0.0066,170.0,21.0,2.4,175.0,690.0,2.33,0.036,2.2,1.05,0.018,0.035,0.00286503,0.00205582,0.000773747,0.0316035,0.0,1.0,1.0,530.0,653.0,21.5,69.0,,,,-1
0.044,0.35,1.43,0.007,0.014,0.0421,0.0082,170.0,21.0,1.0,200.0,0.0,0.0,0.0,1.74794,0.643831,0.018,0.000167126,0.00597292,0.000472641,0.000462364,0.0117936,0.0,1.0,0.0,,,,,-53.0,100.0,,-1
0.068,0.28,0.62,0.008,0.007,0.0477,0.0073,170.0,21.0,1.0,200.0,250.0,14.0,0.0,0.0,0.0,0.0005,0.5,0.0005,0.0005,0.0005,0.0005,0.0,0.0,0.0,391.0,468.0,29.4,77.0,-86.0,28.0,,-1
0.068,0.32,1.38,0.004,0.005,0.0376,0.0074,170.0,21.0,1.0,200.0,250.0,14.0,0.212834,1.35831,0.47247,0.00539263,0.293399,0.0077,0.0175893,0.00105711,0.00786923,0.0,1.0,4.0,466.0,542.0,30.6,80.6,,,,-1
0.044,0.31,0.96,0.006,0.013,0.0421,0.0082,170.0,21.0,1.0,200.0,0.0,0.0,2.38,1.35831,0.583541,0.0657859,0.263858,0.00977999,0.0312175,0.00145869,0.029378,0.0,1.0,0.0,,,,,-59.0,100.0,,-1
0.14,0.33,1.67,0.02,0.026,0.0421,0.0082,650.0,33.0,3.3,300.0,0.0,0.0,0.07,0.066,0.188,0.098,0.01,0.008,0.016,0.00120051,0.008,0.0,1.0,1.0,690.0,,15.0,62.0,,,,-1
0.037,0.31,1.03,0.007,0.014,0.0421,0.0082,170.0,21.0,1.0,200.0,0.0,0.0,0.0,2.8316,0.185429,0.154656,0.0822044,0.00542245,0.0153729,0.00165758,0.0148227,0.0,1.0,0.0,,,,,-48.0,100.0,,-1
0.074,0.27,1.11,0.009,0.024,0.0556,0.0113,290.0,29.0,2.0,150.0,690.0,10.0,0.17,2.3,0.96,0.018,0.301658,0.0144219,0.0050251,0.00144521,0.0149137,0.0,1.0,2.0,595.0,675.0,24.0,69.0,20.0,52.0,,-1
0.07,0.46,1.19,0.01,0.018,0.0771,0.0046,280.0,30.0,2.8,200.0,200.0,14.0,0.01,0.1,0.335576,0.016,0.0600516,0.043,0.037,0.0019,0.007,0.0,1.0,2.0,,538.0,,,,,,-1
0.11,0.26,1.44,0.008,0.012,0.041,0.0145,650.0,33.0,3.3,300.0,0.0,0.0,0.069,0.056,0.01,0.105,0.076,0.005,0.017,0.00205975,0.005,0.0,1.0,1.0,577.0,716.0,26.0,61.0,,,,-1
0.069,0.53,1.17,0.008,0.014,0.0365,0.012,180.0,34.0,1.0,200.0,250.0,14.0,0.212834,5.61123,0.683995,0.100439,0.0830941,0.00664246,0.00804328,0.00110613,0.0282814,0.0,1.0,0.0,487.0,555.0,31.4,78.8,,,,-1
0.061,0.53,1.01,0.009,0.01,0.0307,0.0079,190.0,23.0,1.0925,250.0,200.0,1.0,0.0,0.0,0.0,0.0,0.0,0.00190431,0.001,0.00109953,0.0,0.0,1.0,0.0,449.0,525.0,30.6,78.0,,,,-1
0.031,0.42,1.71,0.004,0.01,0.0297,0.0109,180.0,23.0,1.0,250.0,0.0,0.0,0.212834,0.791187,0.531887,0.018,0.0830941,0.011,0.008,0.00191154,0.02224,0.0,1.0,0.0,488.0,,,,-40.0,71.0,,-1
0.089,0.22,1.05,0.007,0.013,0.0592,0.046,180.0,34.0,1.0,175.0,750.0,8.0,0.602509,9.0,1.04,0.23,0.338079,0.0236444,0.0121022,0.0064,0.07,0.0,1.0,0.0,643.0,777.0,15.7,60.2,21.0,50.0,,-1
0.073,0.34,0.66,0.007,0.007,0.0454,0.0075,170.0,21.0,1.0,200.0,250.0,14.0,0.0,0.0,0.5,0.0005,0.0,0.0005,0.0005,0.0005,0.0005,0.0,0.0,0.0,470.0,559.0,24.6,75.0,-42.0,100.0,,-1
0.069,0.45,1.47,0.005,0.006,0.0282,0.0077,170.0,21.0,1.0,200.0,0.0,0.0,0.212834,1.35831,0.444727,0.018,0.200957,0.041,0.0114961,0.00177737,0.0205586,0.0,1.0,0.0,504.0,577.0,25.8,79.8,,,,-1
0.06,0.49,0.67,0.011,0.009,0.085,0.0082,500.0,32.0,2.0,250.0,690.0,10.0,0.21,2.63,1.06,0.079429,0.129458,0.0146446,0.015,0.00172367,0.0305411,0.0,1.0,5.0,469.0,592.0,27.0,,22.0,96.0,,-1
0.075,0.29,1.75,0.006,0.005,0.0272,0.0096,170.0,21.0,1.0,200.0,250.0,14.0,0.493611,5.39548,0.47247,0.107848,0.0830941,0.0255,0.007,0.00253751,0.00786923,0.0,1.0,4.0,588.0,654.0,26.4,72.0,,,,-1
0.084,0.3,0.54,0.005,0.008,0.066,0.0066,170.0,21.0,2.4,175.0,690.0,2.33,0.036,2.2,1.05,0.0167453,0.035,0.0143317,0.00382105,0.000538261,0.0116847,0.0,1.0,1.0,,,,,-50.0,40.0,,-1
0.086,0.2,1.01,0.007,0.012,0.0596,0.016,180.0,34.0,1.0,175.0,750.0,8.0,1.63122,8.9,1.01,0.21,0.231792,0.00666705,0.0102478,0.0019,0.051,0.0,1.0,0.0,569.0,709.0,17.4,62.7,-22.0,28.0,,-1
0.077,0.31,1.33,0.007,0.005,0.0419,0.008,170.0,21.0,1.0,200.0,0.0,0.0,0.212834,0.0448089,0.180114,0.0004,0.0830941,0.0038,0.0005,0.0005,0.0006,0.0,1.0,0.0,,,,,-67.0,100.0,,-1
0.055,0.34,0.81,0.01,0.009,0.0466,0.0059,285.0,32.0,2.9,200.0,200.0,14.0,0.02,0.05,0.47247,0.011,0.0830941,0.002,0.004,0.0001,0.001,0.0,1.0,2.0,,491.0,,,,,,-1
0.15,0.32,1.2,0.017,0.025,0.0421,0.0099,170.0,21.0,1.6,200.0,0.0,0.0,0.0,0.0,0.0,0.0,0.0,0.0,0.009,0.000773747,0.0,0.0,1.0,1.0,536.6,627.8,30.0,68.0,,,202.0,-1
0.074,0.25,0.58,0.008,0.01,0.05,0.0089,170.0,21.0,1.0,200.0,250.0,14.0,0.0,1.59,0.0,0.0005,0.0,0.0004,0.0005,0.0005,0.0005,0.0,0.0,0.0,494.0,593.0,19.0,71.9,-22.0,100.0,,-1
0.059,0.34,0.77,0.01,0.01,0.0306,0.0066,180.0,23.0,1.0,250.0,0.0,0.0,0.212834,0.410426,0.289183,0.0310687,0.0403466,0.011,0.007,0.00120908,0.00939808,0.0,1.0,0.0,400.0,,,,-60.0,43.0,,-1
0.045,0.26,1.69,0.007,0.012,0.0421,0.0082,170.0,21.0,2.2,200.0,0.0,0.0,0.0701463,0.270294,0.729417,0.0345369,0.286907,4.64855e-05,0.0123207,0.000128468,0.00128304,0.0,1.0,0.0,,,,,-37.0,100.0,,-1
0.077,0.32,1.77,0.007,0.006,0.0418,0.0089,170.0,21.0,1.0,200.0,580.0,2.0,0.846239,1.60702,0.442993,0.0004,0.286073,0.0031,0.0005,0.0005,0.0125,0.0,1.0,0.0,524.0,605.0,24.4,74.0,-61.0,100.0,,-1
0.075,0.35,0.8,0.02,0.017,0.055,0.0082,150.0,37.5,1.0,300.0,690.0,3.0,0.212834,2.3,1.5,0.043171,0.0812811,0.0220283,0.0321363,0.0016984,0.0369534,0.0,1.0,0.0,546.0,648.0,18.0,17.0,,,220.0,-1
0.08,0.59,1.84,0.013,0.016,0.0155,0.0054,700.0,32.0,4.8,200.0,0.0,0.0,0.01,0.05,0.01,0.01,0.38,0.023,0.024,0.0008,0.0137774,0.0,1.0,1.0,507.0,694.0,30.0,58.0,9.0,35.0,,-1
0.075,0.35,1.05,0.008,0.007,0.0361,0.0082,170.0,21.0,1.0,200.0,250.0,14.0,1.19697,0.162657,0.230704,0.0005,0.253776,0.014,0.0005,0.0005,0.0005,0.0,1.0,0.0,434.0,517.0,30.8,78.9,,,,-1
0.11,0.45,1.67,0.014,0.02,0.0421,0.0082,650.0,33.0,3.3,300.0,0.0,0.0,0.042,0.04,0.005,0.096,0.11,0.007,0.024,0.00129916,0.005,0.0,1.0,1.0,600.0,,30.0,68.0,,,,-1
0.075,0.3,0.63,0.008,0.008,0.0438,0.008,170.0,21.0,1.0,200.0,250.0,14.0,0.0,0.0,1.03,0.0005,0.0,0.0005,0.0005,0.0005,0.0005,0.0,0.0,0.0,528.0,619.0,20.6,73.0,-57.0,28.0,,-1
0.079,0.3,1.56,0.007,0.011,0.0431,0.0098,170.0,21.0,1.0,200.0,250.0,14.0,0.0,1.03,0.0,0.0005,0.0,0.0027,0.0005,0.0005,0.0005,0.0,0.0,0.0,624.0,672.0,20.0,73.0,-84.0,28.0,,-1
0.073,0.34,1.49,0.004,0.007,0.0396,0.0084,170.0,21.0,1.0,200.0,0.0,0.0,1.3655,1.35831,0.343631,0.018,0.1621,0.0016,0.007,0.000375232,0.00786923,0.0,1.0,4.0,,,,,-85.0,28.0,,-1
0.073,0.76,1.14,0.015,0.018,0.0711,0.0046,650.0,30.0,2.925,250.0,200.0,1.0,0.0,0.0,0.0,0.0,0.0,0.0193291,0.035,0.00249901,0.0,0.0,1.0,1.0,479.0,581.0,26.2,65.0,,,,-1
0.096,0.13,0.73,0.018,0.022,0.0373,0.0081,625.0,72.24,4.4,200.0,0.0,0.0,0.212834,1.35831,0.43,0.01,0.14,0.0113682,0.0118482,0.00100289,0.00678143,0.0,1.0,3.0,353.0,491.0,32.0,67.0,-60.0,14.0,,-1
0.075,0.33,0.62,0.007,0.005,0.0429,0.0085,170.0,21.0,1.0,200.0,580.0,2.0,1.82069,1.33321,0.47247,0.0003,0.0830941,0.0042,0.0005,0.0005,0.022,0.0,1.0,0.0,451.0,539.0,24.4,78.0,-27.0,100.0,,-1
0.074,0.32,1.5,0.006,0.006,0.0375,0.0089,170.0,21.0,1.0,200.0,0.0,0.0,0.212834,6.93684,0.926033,0.106258,0.0287926,0.0099,0.0008,0.00130325,0.0542326,0.0,1.0,0.0,,,,,-74.0,28.0,,-1
0.076,0.3,1.36,0.008,0.006,0.037,0.0084,170.0,21.0,1.0,200.0,250.0,14.0,1.30537,1.51532,0.993075,0.0004,0.204906,0.0033,0.0005,0.0005,0.0235,0.0,1.0,0.0,540.0,597.0,26.4,76.0,,,,-1
0.076,0.37,1.36,0.005,0.009,0.0422,0.0054,170.0,21.0,1.0,200.0,250.0,14.0,0.969155,1.35831,0.626264,0.0005,0.304428,0.0036,0.019,0.0005,0.0005,0.0,1.0,0.0,485.0,549.0,31.4,79.8,,,,-1
0.073,0.33,1.39,0.007,0.008,0.0427,0.0066,170.0,21.0,1.0,200.0,250.0,14.0,0.442529,1.35831,0.47247,0.0005,0.251784,0.0039,0.002,0.0005,0.0005,0.0,1.0,0.0,475.0,536.0,33.4,80.7,,,,-1
0.071,0.26,1.48,0.007,0.012,0.046,0.0087,170.0,21.0,1.0,200.0,250.0,14.0,2.28,0.0,0.0,0.0005,0.0,0.0005,0.0005,0.0005,0.0005,0.0,0.0,0.0,512.0,605.0,21.7,75.0,-61.0,28.0,,-1
0.046,0.32,1.81,0.007,0.015,0.0421,0.0082,170.0,21.0,1.0,200.0,250.0,14.0,2.33,4.01333,0.373669,0.233836,0.251785,0.00984096,0.0277413,0.00335286,0.0333146,0.0,1.0,0.0,621.0,684.0,23.5,73.9,,,,-1
0.037,0.31,1.03,0.007,0.014,0.0421,0.0082,170.0,21.0,1.0,200.0,580.0,2.0,0.212834,0.0,0.316856,0.018,0.0830941,0.00767177,0.007,0.000773747,0.00786923,0.0,1.0,0.0,402.0,490.0,31.0,80.6,-44.0,100.0,,-1
0.051,0.32,1.8,0.006,0.012,0.0421,0.0082,170.0,21.0,1.0,200.0,0.0,0.0,1.53909,2.58457,0.303966,0.0818684,0.17534,0.0026959,0.000510202,0.00185227,0.0196628,0.0,1.0,0.0,,,,,-44.0,100.0,,-1
0.1,0.54,0.66,0.006,0.014,0.051,0.018,181.0,22.0,1.0,175.0,0.0,0.0,0.31,9.0,0.82,0.23,0.02,0.01,0.01,0.00265943,0.017,0.0,1.0,0.0,,,,,,,405.0,-1
0.091,0.2,1.04,0.007,0.013,0.0591,0.048,180.0,34.0,1.0,175.0,750.0,8.0,0.212834,9.02,1.01,0.24,0.0830941,0.0120161,0.00506019,0.0032,0.062,0.0,1.0,0.0,642.0,778.0,16.8,59.8,10.0,50.0,,-1
0.096,0.3,0.8,0.012,0.013,0.0265,0.0047,650.0,30.0,2.925,250.0,200.0,1.0,0.0,0.0,0.0,0.0,0.0,0.0170193,0.017,0.000774167,0.0,0.0,1.0,1.0,370.0,481.0,33.6,76.0,,,,-1
0.06,0.34,1.08,0.007,0.014,0.048,0.011,116.0,23.0,1.3,175.0,720.0,2.0,0.69,9.0,1.03,0.29,0.02,0.01,0.01,0.00198105,0.01,0.0,1.0,0.0,,,,,,,224.0,-1
0.081,0.34,1.54,0.007,0.008,0.0312,0.008,170.0,21.0,1.0,200.0,0.0,0.0,0.827406,3.0643,0.506351,0.0725658,0.459794,0.018,0.0003,0.00238221,0.0342777,0.0,1.0,0.0,,,,,-67.0,28.0,,-1
0.093,0.16,1.03,0.008,0.012,0.0651,0.0515,180.0,34.0,1.0,175.0,750.0,8.0,0.98,9.08,0.98,0.19,0.0830941,0.0103692,0.00865243,0.00159863,0.043,0.0,1.0,0.0,551.0,751.0,19.6,64.5,,,,-1
0.09,0.3,1.25,0.02,0.016,0.0421,0.0082,150.0,37.5,1.0,300.0,690.0,3.0,2.23564,2.0,1.1,0.172348,0.638246,0.0139283,0.0313054,0.00318393,0.0340454,0.0,1.0,0.0,,,,,,,240.0,-1
0.09,0.18,0.98,0.008,0.012,0.0642,0.046,180.0,34.0,1.0,175.0,750.0,8.0,0.18059,8.9,1.0,0.22,0.0830941,0.00597292,0.007,0.0003,0.052,0.0,1.0,0.0,542.0,697.0,18.8,65.3,12.0,100.0,,-1
0.077,0.44,1.61,0.012,0.021,0.0434,0.0105,450.0,30.0,2.025,250.0,200.0,1.0,0.0,0.0,0.0,0.0,0.0,0.0174244,0.018,0.000650546,0.0,0.0,1.0,1.0,456.0,567.0,27.6,73.0,,,,-1
0.078,0.44,1.24,0.012,0.018,0.0479,0.0061,550.0,30.0,2.475,250.0,200.0,1.0,0.0,0.0,0.0,0.0,0.0,0.0131793,0.022,0.000668425,0.0,0.0,1.0,1.0,383.0,487.0,32.4,77.0,,,,-1
0.08,0.25,0.8,0.01,0.01,0.0421,0.0082,525.0,30.0,1.75,210.0,700.0,20.0,0.03,2.3,1.05,0.01,0.02,0.00265485,0.000733908,0.000454132,0.0304677,0.0,1.0,1.0,527.0,627.0,,,-10.0,203.0,,-1
0.039,0.29,0.94,0.007,0.011,0.0421,0.0082,170.0,21.0,1.0,200.0,0.0,0.0,0.894782,2.36114,0.286129,0.0166689,0.0830941,0.00974756,0.00203809,0.00120629,0.00335693,0.0,1.0,0.0,,,,,-46.0,100.0,,-1
0.092,0.35,0.9,0.008,0.016,0.0426,0.0099,450.0,30.0,2.0,200.0,760.0,2.0,0.54,8.4,0.97,0.17,0.0830941,0.00282369,0.007,0.00184293,0.05,0.0,1.0,1.0,832.0,,,,,,,-1
0.08,0.67,1.94,0.013,0.015,0.0142,0.0057,700.0,32.0,4.8,200.0,0.0,0.0,0.51,0.05,0.01,0.01,0.43,0.028,0.022,0.004,0.00786923,0.0,1.0,1.0,489.0,807.0,27.0,42.0,51.0,35.0,,-1
0.074,0.28,1.58,0.008,0.008,0.0404,0.0145,170.0,21.0,1.0,200.0,0.0,0.0,0.177958,1.35831,0.47247,0.018,0.047049,0.0005,0.00626804,0.000773747,4.82355e-06,0.0,1.0,0.0,473.0,566.0,24.0,77.0,,,,-1
0.054,0.33,1.72,0.007,0.014,0.0421,0.0082,170.0,21.0,1.0,200.0,250.0,14.0,0.457243,2.36,0.514554,0.0216239,0.0830941,0.00893144,0.007,0.000886837,0.0374259,0.0,1.0,0.0,808.0,865.0,18.2,65.2,,,,-1
0.076,0.37,1.36,0.005,0.009,0.0422,0.0054,170.0,21.0,1.0,200.0,580.0,2.0,0.0463184,0.468543,0.47247,0.0005,0.0830941,0.0036,0.019,0.0005,0.0005,0.0,1.0,0.0,403.0,519.0,29.1,78.9,-74.0,100.0,,-1
0.12,0.33,1.47,0.014,0.014,0.04,0.0136,650.0,33.0,3.3,300.0,0.0,0.0,0.06,0.05,0.39,0.055,0.11,0.005,0.015,0.000203505,0.005,0.0,1.0,1.0,574.0,744.0,24.0,55.0,,,,-1
0.06,0.34,1.08,0.007,0.014,0.048,0.011,116.0,23.0,1.3,175.0,0.0,0.0,0.69,9.0,1.03,0.29,0.02,0.01,0.01,0.0020487,0.01,0.0,1.0,0.0,,,,,,,373.0,-1
0.059,0.3,1.44,0.006,0.01,0.0305,0.0065,180.0,23.0,1.0,250.0,0.0,0.0,2.17,0.342716,0.47247,0.0375741,0.298185,0.009,0.007,0.000773747,0.0220584,0.0,1.0,0.0,473.0,,,,0.0,171.0,,-1
0.046,0.31,0.96,0.008,0.012,0.0421,0.0082,170.0,21.0,0.6,200.0,250.0,14.0,0.212834,4.43021,0.880764,0.00548007,0.117556,0.00313074,0.007,0.00013568,0.0319701,0.0,1.0,0.0,479.0,527.0,27.8,77.0,,,,-1
0.081,0.34,0.49,0.004,0.012,0.0421,0.024,300.0,12.5,1.4,177.0,746.0,1.0,0.08,8.57,0.98,0.22,0.05,0.002,4e-07,0.001,0.0324308,0.0,1.0,8.0,682.0,783.0,26.0,74.0,,,,-1
0.047,0.32,1.75,0.007,0.015,0.0421,0.0082,170.0,21.0,1.0,240.0,0.0,0.0,0.648773,4.30926,0.409021,0.17535,0.335394,0.0129135,0.0320927,0.00242418,0.0326244,0.0,1.0,0.0,501.0,566.0,31.4,77.8,-48.0,100.0,,-1
0.077,0.26,1.73,0.007,0.008,0.0423,0.0072,170.0,21.0,1.0,200.0,250.0,14.0,0.0121941,2.41861,0.64934,0.0235,0.0830941,0.0027,0.0005,0.0005,0.0005,0.0,1.0,0.0,543.0,607.0,23.2,77.0,,,,-1
0.095,0.16,1.02,0.007,0.012,0.061,0.0489,180.0,34.0,1.0,175.0,750.0,8.0,3.01,9.17,0.96,0.19,0.177815,0.0160369,0.007,0.00245394,0.045,0.0,1.0,0.0,920.0,1151.0,10.6,47.6,,,,-1
0.037,0.31,1.03,0.007,0.014,0.0421,0.0082,170.0,21.0,1.0,200.0,250.0,14.0,0.670391,0.0,0.47247,0.108962,0.0830941,0.0163023,0.0493693,0.00080648,0.00697015,0.0,1.0,0.0,413.0,498.0,31.2,80.6,,,,-1
0.088,0.37,1.59,0.011,0.01,0.0491,0.0077,180.0,23.0,1.0,250.0,0.0,0.0,0.295232,3.61074,0.610787,0.035013,0.00890652,0.012,0.003,0.000961924,0.0301842,0.0,1.0,0.0,478.0,,,,-60.0,81.0,,-1
0.072,0.34,1.33,0.006,0.008,0.0427,0.0057,170.0,21.0,1.0,200.0,0.0,0.0,0.306929,8.34623,1.26884,0.165447,0.0830941,0.019,0.015,0.00254144,0.0375561,0.0,1.0,0.0,,,,,-52.0,100.0,,-1
0.049,0.34,1.42,0.005,0.013,0.041,0.009,170.0,21.0,1.0,150.0,0.0,0.0,0.212834,1.35831,0.50149,0.018,0.00400606,0.00355595,0.0107528,0.000773747,0.00649649,0.0,1.0,0.0,468.0,551.0,29.4,78.7,-53.0,100.0,,-1
0.045,0.26,1.69,0.007,0.012,0.0421,0.0082,170.0,21.0,2.2,200.0,250.0,14.0,1.76387,4.54448,0.631302,0.133774,0.0830941,0.0152081,0.020004,0.00142082,0.00786923,0.0,1.0,0.0,456.0,548.0,32.0,78.8,,,,-1
0.078,0.44,1.31,0.005,0.008,0.0431,0.005,170.0,21.0,1.0,200.0,0.0,0.0,1.16516,1.32141,0.00104873,0.120861,0.15219,0.0036,0.034,0.00111974,0.0423816,0.0,1.0,0.0,,,,,-88.0,28.0,,-1
0.075,0.35,0.66,0.009,0.007,0.0396,0.0071,170.0,21.0,1.0,200.0,0.0,0.0,0.212834,2.15349,0.690417,0.0005,0.309562,0.0096,0.0005,0.0005,0.0005,0.0,1.0,0.0,,,,,-40.0,100.0,,-1
0.076,0.51,1.3,0.005,0.008,0.0423,0.005,170.0,21.0,1.0,200.0,580.0,2.0,1.39457,1.35831,0.47247,0.0005,0.488809,0.0043,0.049,0.0005,0.0005,0.0,1.0,0.0,417.0,528.0,29.0,78.9,-69.0,100.0,,-1
0.088,0.34,1.33,0.008,0.007,0.0421,0.0082,170.0,21.0,1.0,200.0,580.0,2.0,0.420329,5.37102,0.703875,0.101651,0.0830941,0.00674603,0.00901065,0.000998281,0.00315523,0.0,1.0,0.0,461.0,568.0,28.6,77.9,-60.0,106.0,,-1
0.08,0.36,1.02,0.014,0.014,0.0513,0.0051,650.0,30.0,2.925,250.0,200.0,1.0,0.0,0.0,0.0,0.0,0.0,0.0235768,0.023,0.00121488,0.0,0.0,1.0,1.0,378.0,477.0,31.0,75.0,,,,-1
0.06,0.42,2.0,0.01,0.02,0.0371,0.0117,170.0,21.0,1.8,100.0,250.0,16.0,0.02,0.0669164,0.01,0.018,0.02,0.00597292,0.007,0.000773747,0.0327704,0.0,1.0,0.0,583.0,664.0,,,,,,-1
0.094,0.17,1.0,0.008,0.012,0.0636,0.016,180.0,34.0,1.0,175.0,750.0,8.0,2.40059,8.99,1.03,0.21,0.101397,0.00597292,0.007,0.0003,0.052,0.0,1.0,0.0,558.0,705.0,20.8,64.5,-14.0,28.0,,-1
0.047,0.33,1.42,0.006,0.01,0.0421,0.0082,170.0,21.0,1.0,200.0,580.0,2.0,0.631999,0.53,0.455486,0.107906,0.615041,0.00416075,0.0214125,0.00102828,0.0267683,0.0,1.0,0.0,514.0,600.0,25.8,76.0,-35.0,100.0,,-1
0.11,0.14,0.73,0.002,0.005,0.0254,0.0026,500.0,29.0,2.9,200.0,690.0,24.0,2.32842,2.3,1.03,0.27,0.256588,0.0126058,0.04611,0.00396091,0.02,1.0,0.0,1.0,,685.0,,,,,,-1
0.068,0.35,1.51,0.006,0.006,0.0351,0.0087,170.0,21.0,1.0,200.0,0.0,0.0,1.47809,2.22194,0.609467,0.133528,0.0900295,0.01,0.0144967,0.0018363,0.00451676,0.0,1.0,4.0,,,,,-47.0,100.0,,-1
0.065,0.34,0.97,0.007,0.008,0.0421,0.0082,170.0,21.0,1.0,200.0,580.0,2.0,0.846122,3.78075,0.436099,0.149468,0.267299,0.0055914,0.0157024,0.00168802,0.0191307,0.0,1.0,0.0,418.0,500.0,35.0,80.6,-60.0,45.0,,-1
0.076,0.29,1.74,0.008,0.006,0.0415,0.0092,170.0,21.0,1.0,200.0,580.0,2.0,0.212834,0.407033,0.47247,0.0004,0.0830941,0.0035,0.0005,0.0005,0.0006,0.0,1.0,0.0,414.0,518.0,29.2,78.4,-71.0,100.0,,-1
0.071,0.42,1.39,0.007,0.005,0.0446,0.0065,170.0,21.0,1.0,200.0,0.0,0.0,1.03935,5.23446,0.528444,0.151242,0.0745321,0.042,0.015,0.00359805,0.0083924,0.0,1.0,0.0,,,,,-74.0,28.0,,-1
0.075,0.32,1.83,0.006,0.007,0.0346,0.0082,170.0,21.0,1.0,200.0,0.0,0.0,0.449864,4.7279,1.051,0.0005,0.0830941,0.017,0.0005,0.0005,0.0005,0.0,1.0,0.0,,,,,-52.0,100.0,,-1
0.037,0.28,0.6,0.008,0.01,0.0421,0.0082,170.0,21.0,1.0,240.0,0.0,0.0,0.360188,4.89683,1.05768,0.147173,0.326183,0.0169541,0.0151919,0.00207699,0.0565473,0.0,1.0,0.0,390.0,465.0,34.8,80.6,-31.0,100.0,,-1
0.074,0.28,1.46,0.008,0.008,0.0443,0.0079,170.0,21.0,1.0,200.0,250.0,14.0,0.0,0.0,0.0,0.0005,0.0,0.0035,0.0005,0.0005,0.0005,0.0,0.0,0.0,460.0,533.0,27.6,78.9,-88.0,28.0,,-1
0.072,0.34,1.33,0.006,0.008,0.0427,0.0057,170.0,21.0,1.0,200.0,0.0,0.0,0.807006,4.85361,0.755373,0.126328,0.0830941,0.019,0.015,0.00233156,0.0390462,0.0,1.0,0.0,,,,,-64.0,28.0,,-1
0.046,0.31,1.4,0.007,0.012,0.0421,0.0082,170.0,21.0,1.0,150.0,0.0,0.0,1.91159,2.6823,0.610054,0.141278,0.164478,0.0119902,0.0134937,0.00208308,0.00572184,0.0,1.0,0.0,486.0,556.0,28.6,77.0,-41.0,100.0,,-1
0.14,0.18,0.75,0.002,0.005,0.0256,0.0021,500.0,29.0,2.9,200.0,690.0,8.0,0.53885,2.3,1.01,0.27,0.479514,0.00675813,0.0349497,0.00158071,0.02,1.0,0.0,1.0,,770.0,,,-20.0,80.0,,-1