File: 4 - Dataset/regression_weld_data_noOutliers.csv
Carbon concentration (weight%),Silicon concentration (weight%),Manganese concentration (weight%),Sulphur concentration (weight%),Phosphorus concentration (weight%),Oxygen concentration (%),Titanium concentration (%),Nitrogen concentration (%),Current (A),Voltage (V),Heat input (kJ/mm),Interpass temperature (deg C),Post weld heat treatment temperature (deg C),Post weld heat treatment time (hours),Nickel concentration (weight%),Chromium concentration (weight%),Molybdenum concentration (weight%),Vanadium concentration (weight%),Copper concentration (weight%),Aluminium concentration (%),Boron concentration (%),Niobium concentration (%),AC or DC,Electrode positive or negative,Type of weld,Yield strength (MPa),Ultimate tensile strength (MPa),Elongation (%),Reduction of Area (%),Charpy temperature (deg C),Charpy impact toughness (J)
0.037,0.3,0.65,0.008,0.012,0.0422,0.0042,0.008,170.0,21.0,1.0,200.0,250.0,14.0,0.0,6.6186,0.943861,0.219566,0.158641,0.0101931,0.00140757,0.0283535,0.0,1.0,0.0,392.0,466.0,31.9,80.6,,
0.037,0.31,1.03,0.007,0.014,0.0422,0.0042,0.008,170.0,21.0,1.0,200.0,580.0,2.0,0.0,3.45333,0.712301,0.0896151,0.158625,0.00417728,0.000724869,0.005,0.0,1.0,0.0,402.0,490.0,31.0,80.6,-44.0,100.0
0.045,0.33,1.85,0.007,0.016,0.0422,0.0042,0.008,170.0,21.0,1.0,200.0,0.0,0.0,0.0,4.71744,0.667047,0.0874237,0.0386579,0.00495088,0.000956682,0.0155532,0.0,1.0,0.0,,,,,-38.0,100.0
0.041,0.33,1.01,0.006,0.011,0.0422,0.0042,0.008,170.0,21.0,1.0,200.0,0.0,0.0,0.49,0.299463,0.107582,0.0536109,0.0728602,0.0150804,0.00133968,0.0147827,0.0,1.0,0.0,,,,,,
0.049,0.33,1.85,0.006,0.014,0.0422,0.0042,0.008,170.0,21.0,1.0,200.0,0.0,0.0,0.51,2.12996,0.403378,0.0558834,0.112604,0.00495088,0.000971026,0.00247424,0.0,1.0,0.0,,,,,,
0.043,0.33,1.0,0.006,0.013,0.0422,0.0042,0.008,170.0,21.0,1.0,200.0,250.0,14.0,1.1,3.76632,0.394353,0.200427,0.58462,0.025889,0.00139731,0.0285467,0.0,1.0,0.0,475.0,541.0,29.6,77.9,,
0.049,0.35,1.37,0.007,0.013,0.0422,0.0042,0.008,170.0,21.0,1.0,200.0,580.0,2.0,1.06,0.990853,0.394353,0.0912239,0.483048,0.0235638,0.00181846,0.0139125,0.0,1.0,0.0,470.0,557.0,30.2,76.0,-20.0,100.0
0.041,0.3,0.62,0.007,0.01,0.0422,0.0042,0.008,170.0,21.0,1.0,200.0,0.0,0.0,2.38,0.990853,0.650565,0.0360499,0.0209598,0.00529308,0.0012016,0.00263706,0.0,1.0,0.0,,,,,-50.0,100.0
0.049,0.32,1.41,0.007,0.014,0.0422,0.0042,0.008,170.0,21.0,1.0,200.0,250.0,14.0,2.32,0.990853,0.394353,0.0616711,0.280787,0.0168507,0.000829717,0.00667517,0.0,1.0,0.0,567.0,635.0,23.6,72.7,,
0.046,0.32,1.81,0.007,0.015,0.0422,0.0042,0.008,170.0,21.0,1.0,200.0,580.0,2.0,2.33,0.990853,0.394353,0.0497624,0.548724,0.000952069,0.00128428,0.0299651,0.0,1.0,0.0,574.0,665.0,26.4,70.7,,
0.074,0.32,1.42,0.008,0.007,0.038,0.004,0.008,170.0,21.0,1.0,150.0,0.0,0.0,0.573467,0.990853,0.394353,0.0178235,0.19,0.0156719,0.000598778,0.005,0.0,1.0,0.0,488.0,566.0,28.2,77.0,,
0.068,0.32,1.49,0.006,0.006,0.039,0.004,0.008,170.0,21.0,1.0,150.0,580.0,2.0,1.65015,2.47577,1.19282,0.195613,0.66,0.0246399,0.00165886,0.0115709,0.0,1.0,0.0,499.0,607.0,28.6,74.0,,
0.081,0.29,1.43,0.006,0.013,0.0461,0.0005,0.0054,170.0,21.0,1.0,200.0,250.0,14.0,0.951328,2.00585,0.45534,0.0656163,0.560479,0.006,0.00154349,0.0228122,0.0,1.0,0.0,444.0,542.0,27.6,72.9,,
0.076,0.34,1.36,0.005,0.011,0.0476,0.0005,0.0057,170.0,21.0,1.0,200.0,0.0,0.0,0.390471,1.19913,0.394353,0.126982,0.536797,0.015,0.00121643,0.0117408,0.0,1.0,0.0,,,,,-58.0,28.0
0.079,0.39,1.37,0.005,0.011,0.0446,0.0005,0.0047,170.0,21.0,1.0,200.0,0.0,0.0,0.834942,0.990853,0.394353,0.0178235,0.0281414,0.025,9.94885e-06,0.005,0.0,1.0,0.0,,,,,-25.0,100.0
0.078,0.44,1.4,0.004,0.011,0.0436,0.0005,0.0044,170.0,21.0,1.0,200.0,0.0,0.0,0.850667,0.990853,0.66457,0.0743655,0.218755,0.042,0.00100472,0.00419074,0.0,1.0,0.0,,,,,,
0.08,0.33,1.41,0.006,0.009,0.0432,0.0043,0.0055,170.0,21.0,1.0,200.0,250.0,14.0,0.280238,4.06063,1.86756,0.122189,0.0728602,0.0078,0.000747793,0.0267827,0.0,1.0,0.0,478.0,540.0,31.2,80.7,,
0.076,0.37,1.36,0.005,0.009,0.0422,0.0036,0.0053,170.0,21.0,1.0,200.0,0.0,0.0,0.868579,0.990853,0.394353,0.151058,0.488761,0.019,0.000616375,0.00373291,0.0,1.0,0.0,,,,,-86.0,28.0
0.078,0.44,1.31,0.005,0.008,0.0431,0.0036,0.005,170.0,21.0,1.0,200.0,0.0,0.0,0.51003,5.56893,0.402875,0.289151,0.344698,0.034,0.00266205,0.0399265,0.0,1.0,0.0,,,,,-63.0,100.0
0.076,0.51,1.3,0.005,0.008,0.0423,0.0043,0.0048,170.0,21.0,1.0,200.0,0.0,0.0,0.463724,1.28306,0.572464,0.172105,0.30312,0.049,0.00145027,0.00686174,0.0,1.0,0.0,,,,,,
0.074,0.27,1.41,0.007,0.006,0.0407,0.0088,0.007,170.0,21.0,1.0,200.0,0.0,0.0,0.954792,4.35497,0.90528,0.069259,0.0728602,0.0047,0.000791338,0.00913393,0.0,1.0,0.0,,,,,-57.0,28.0
0.069,0.45,1.36,0.005,0.008,0.0374,0.0063,0.0044,170.0,21.0,1.0,200.0,250.0,14.0,0.813317,0.990853,0.42897,0.0860616,0.477309,0.028,0.000823045,0.0170809,0.0,1.0,0.0,474.0,540.0,28.0,80.7,,
0.069,0.51,1.39,0.004,0.008,0.0379,0.0069,0.0041,170.0,21.0,1.0,200.0,0.0,0.0,1.18755,2.71593,0.356377,0.278936,0.640948,0.048,0.00228857,0.0344497,0.0,1.0,0.0,,,,,-54.0,100.0
0.072,0.24,1.32,0.006,0.008,0.0397,0.018,0.0068,170.0,21.0,1.0,200.0,250.0,14.0,0.206921,2.65339,0.394353,0.0432473,0.0728602,0.0047,0.000611749,0.00154433,0.0,1.0,0.0,452.0,535.0,30.7,78.9,,
0.072,0.34,1.33,0.006,0.008,0.0427,0.019,0.0057,170.0,21.0,1.0,200.0,0.0,0.0,0.421029,0.990853,0.394353,0.0107933,0.396259,0.015,0.000417412,0.00971793,0.0,1.0,0.0,,,,,-64.0,28.0
0.074,0.41,1.36,0.005,0.005,0.0418,0.026,0.0049,170.0,21.0,1.0,200.0,0.0,0.0,1.18372,0.990853,0.394353,0.0404541,0.571629,0.032,0.000878592,0.0184194,0.0,1.0,0.0,,,,,-47.0,100.0
0.066,0.46,1.41,0.004,0.009,0.0407,0.024,0.0049,170.0,21.0,1.0,200.0,0.0,0.0,0.215113,0.990853,0.394353,0.0962181,0.498575,0.044,0.00208378,0.0295395,0.0,1.0,0.0,,,,,,
0.086,0.2,1.01,0.007,0.012,0.0596,0.0042,0.016,180.0,34.0,1.0,175.0,750.0,8.0,0.0335938,8.9,1.01,0.21,0.0969734,0.00213444,0.0019,0.051,0.0,1.0,0.0,569.0,709.0,17.4,62.7,,
0.086,0.2,1.04,0.008,0.013,0.0567,0.0042,0.016,180.0,34.0,1.0,175.0,750.0,8.0,0.215113,8.98,1.01,0.22,0.0728602,0.00495088,0.0036,0.056,0.0,1.0,0.0,,,,,-19.0,28.0
0.037,0.3,0.65,0.008,0.012,0.0422,0.0042,0.008,170.0,21.0,1.0,200.0,0.0,0.0,0.634717,0.0,0.394353,0.0175419,0.18857,0.0281789,0.000907493,0.00355327,0.0,1.0,0.0,,,,,-26.0,100.0
0.044,0.35,1.43,0.007,0.014,0.0422,0.0042,0.008,170.0,21.0,1.0,200.0,580.0,2.0,3.10709,0.0,0.54513,0.116796,0.270751,0.034698,0.000542847,0.005,0.0,1.0,0.0,436.0,529.0,31.6,78.8,-49.0,100.0
0.038,0.3,0.65,0.007,0.014,0.0422,0.0042,0.008,170.0,21.0,1.0,200.0,250.0,14.0,0.215113,0.22,0.0124766,0.0178235,0.0237139,0.00495088,0.000299971,0.00765468,0.0,1.0,0.0,422.0,496.0,30.4,78.8,,
0.044,0.32,1.45,0.007,0.013,0.0422,0.0042,0.008,170.0,21.0,1.0,200.0,250.0,14.0,0.215113,0.24,0.289118,0.0381982,0.498408,0.0114417,0.00054632,0.0132227,0.0,1.0,0.0,500.0,575.0,28.0,78.8,,
0.04,0.33,0.6,0.006,0.01,0.0422,0.0042,0.008,170.0,21.0,1.0,200.0,250.0,14.0,0.549163,0.51,0.394353,0.0998774,0.0728602,0.0130286,0.000899168,0.0133921,0.0,1.0,0.0,446.0,510.0,32.2,78.8,,
0.043,0.31,0.95,0.007,0.01,0.0422,0.0042,0.008,170.0,21.0,1.0,200.0,0.0,0.0,0.215113,0.53,0.696646,0.00459434,0.0728602,0.00486957,0.000363777,0.000580115,0.0,1.0,0.0,,,,,-45.0,100.0
0.051,0.33,1.83,0.006,0.013,0.0422,0.0042,0.008,170.0,21.0,1.0,200.0,580.0,2.0,0.331539,0.52,0.257732,0.149562,0.921027,0.0220739,0.00135821,0.0206688,0.0,1.0,0.0,570.0,650.0,24.0,68.7,-2.0,100.0
0.045,0.32,0.97,0.007,0.012,0.0422,0.0042,0.008,170.0,21.0,1.0,200.0,250.0,14.0,2.15544,1.04,0.965713,0.162153,0.254483,0.0370574,0.00158103,0.0228624,0.0,1.0,0.0,531.0,592.0,24.6,76.0,,
0.048,0.33,1.37,0.008,0.013,0.0422,0.0042,0.008,170.0,21.0,1.0,200.0,0.0,0.0,0.313212,1.08,0.227433,0.0178235,0.280133,0.00495088,2.78904e-05,0.005,0.0,1.0,0.0,,,,,-40.0,100.0
0.041,0.27,0.59,0.009,0.011,0.0422,0.0042,0.008,170.0,21.0,1.0,200.0,580.0,2.0,0.316076,2.34,0.52057,0.0178235,0.0728602,0.00495088,2.28563e-05,0.005,0.0,1.0,0.0,534.0,619.0,22.0,75.0,0.0,100.0
0.05,0.31,1.29,0.008,0.011,0.0422,0.0042,0.008,170.0,21.0,1.0,200.0,250.0,14.0,0.263985,2.32,1.02397,0.0218264,0.0593144,0.0114025,0.000634359,0.0134848,0.0,1.0,0.0,738.0,789.0,20.0,67.0,,
0.069,0.3,1.36,0.007,0.009,0.0432,0.0037,0.0067,170.0,21.0,1.0,200.0,250.0,14.0,0.215113,1.63273,0.527775,0.0005,0.125352,0.0005,0.0005,0.0005,0.0,1.0,0.0,468.0,529.0,32.6,80.7,,
0.069,0.3,1.36,0.007,0.009,0.0432,0.0037,0.0067,170.0,21.0,1.0,200.0,580.0,2.0,0.250103,1.24945,0.267767,0.0005,0.0728602,0.0005,0.0005,0.0005,0.0,1.0,0.0,,,,,-100.0,28.0
0.073,0.33,1.39,0.007,0.008,0.0427,0.0039,0.0066,170.0,21.0,1.0,200.0,580.0,2.0,0.215113,2.57713,0.682875,0.0005,0.0452111,0.002,0.0005,0.0005,0.0,1.0,0.0,387.0,493.0,32.5,80.7,,
0.078,0.32,1.39,0.007,0.009,0.0436,0.0042,0.0066,170.0,21.0,1.0,200.0,580.0,2.0,0.215113,0.990853,0.415898,0.0005,0.0955554,0.0044,0.0005,0.0005,0.0,1.0,0.0,398.0,499.0,32.8,80.7,,
0.08,0.33,1.41,0.006,0.009,0.0432,0.0043,0.0061,170.0,21.0,1.0,200.0,0.0,0.0,0.450828,0.213978,1.17829,0.0005,0.171964,0.0078,0.0005,0.0005,0.0,1.0,0.0,,,,,-55.0,100.0
0.08,0.37,1.42,0.006,0.009,0.0439,0.0043,0.0054,170.0,21.0,1.0,200.0,250.0,14.0,0.215113,2.8166,0.744213,0.0005,0.0728602,0.012,0.0005,0.0005,0.0,1.0,0.0,480.0,543.0,29.0,78.9,,
0.08,0.37,1.42,0.006,0.009,0.0439,0.0043,0.0054,170.0,21.0,1.0,200.0,580.0,2.0,0.510799,0.990853,0.187123,0.0005,0.207151,0.012,0.0005,0.0005,0.0,1.0,0.0,,,,,-69.0,100.0
0.076,0.37,1.36,0.005,0.009,0.0422,0.0036,0.0054,170.0,21.0,1.0,200.0,580.0,2.0,0.215113,0.990853,0.394353,0.0005,0.0728602,0.019,0.0005,0.0005,0.0,1.0,0.0,403.0,519.0,29.1,78.9,,
0.078,0.44,1.31,0.005,0.008,0.0431,0.0036,0.0052,170.0,21.0,1.0,200.0,0.0,0.0,0.215113,0.990853,0.236975,0.0005,0.0728602,0.034,0.0005,0.0005,0.0,1.0,0.0,,,,,-63.0,100.0
0.076,0.51,1.3,0.005,0.008,0.0423,0.0043,0.005,170.0,21.0,1.0,200.0,250.0,14.0,0.567979,0.990853,0.730429,0.0005,0.00102131,0.049,0.0005,0.0005,0.0,1.0,0.0,485.0,560.0,25.2,78.9,,
0.076,0.51,1.3,0.005,0.008,0.0423,0.0043,0.005,170.0,21.0,1.0,200.0,580.0,2.0,1.70219,0.990853,0.394353,0.0005,0.357461,0.049,0.0005,0.0005,0.0,1.0,0.0,,,,,-84.0,28.0
0.071,0.36,0.63,0.007,0.006,0.0435,0.0043,0.0078,170.0,21.0,1.0,200.0,250.0,14.0,0.215113,0.182983,0.185342,0.021,0.102599,0.0005,0.0005,0.0005,0.0,1.0,0.0,436.0,513.0,29.2,77.0,,
0.071,0.4,0.64,0.008,0.006,0.0411,0.0036,0.0088,170.0,21.0,1.0,200.0,580.0,2.0,0.215113,1.73573,0.49806,0.0435,0.49108,0.0005,0.0005,0.0005,0.0,1.0,0.0,446.0,526.0,,76.0,-30.0,100.0
0.072,0.36,0.64,0.008,0.006,0.0436,0.0034,0.0084,170.0,21.0,1.0,200.0,0.0,0.0,0.919874,0.692927,0.834407,0.0815,0.141777,0.0005,0.0005,0.0005,0.0,1.0,0.0,,,,,-40.0,100.0
0.076,0.34,1.01,0.007,0.007,0.0426,0.0037,0.0075,170.0,21.0,1.0,200.0,250.0,14.0,0.644456,1.17009,0.394353,0.0215,0.369459,0.0005,0.0005,0.0005,0.0,1.0,0.0,456.0,534.0,25.0,79.6,,
0.078,0.31,1.04,0.007,0.006,0.0429,0.0032,0.0048,170.0,21.0,1.0,200.0,580.0,2.0,0.84459,0.453637,0.637901,0.044,0.0728602,0.0005,0.0005,0.0005,0.0,1.0,0.0,478.0,554.0,27.2,78.0,-51.0,100.0
0.077,0.32,1.05,0.008,0.006,0.04,0.0034,0.0072,170.0,21.0,1.0,200.0,0.0,0.0,0.156718,1.75429,0.212165,0.085,0.166742,0.0005,0.0005,0.0005,0.0,1.0,0.0,,,,,-60.0,100.0
0.072,0.33,1.22,0.008,0.006,0.0447,0.0029,0.0085,170.0,21.0,1.0,200.0,250.0,14.0,1.55946,0.990853,0.419404,0.019,0.344576,0.0005,0.0005,0.0005,0.0,1.0,0.0,486.0,545.0,29.6,78.2,,
0.077,0.26,1.36,0.007,0.007,0.041,0.0029,0.0079,170.0,21.0,1.0,200.0,580.0,2.0,0.847827,0.889969,0.394353,0.0425,0.40993,0.0005,0.0005,0.0005,0.0,1.0,0.0,526.0,594.0,26.0,76.0,-62.0,100.0
0.076,0.26,1.36,0.007,0.006,0.0407,0.0029,0.0083,170.0,21.0,1.0,200.0,0.0,0.0,1.32267,2.54151,0.436091,0.1005,0.119988,0.0005,0.0005,0.0005,0.0,1.0,0.0,,,,,-55.0,100.0
0.077,0.26,1.73,0.007,0.008,0.0423,0.0027,0.0072,170.0,21.0,1.0,200.0,250.0,14.0,0.900471,1.73357,0.653559,0.0235,0.736786,0.0005,0.0005,0.0005,0.0,1.0,0.0,543.0,607.0,23.2,77.0,,
0.077,0.26,1.72,0.007,0.008,0.0423,0.0025,0.0074,170.0,21.0,1.0,200.0,580.0,2.0,0.882706,0.990853,0.568823,0.041,0.0728602,0.0005,0.0005,0.0005,0.0,1.0,0.0,538.0,626.0,21.8,74.0,-55.0,100.0
0.08,0.26,1.74,0.007,0.008,0.0411,0.0025,0.009,170.0,21.0,1.0,200.0,0.0,0.0,0.899018,4.92754,0.633062,0.083,0.147705,0.0005,0.0005,0.0005,0.0,1.0,0.0,,,,,-61.0,100.0
0.073,0.34,0.64,0.007,0.005,0.0431,0.0041,0.008,170.0,21.0,1.0,200.0,250.0,14.0,0.215113,2.12602,1.19916,0.0003,0.0728602,0.0005,0.0005,0.012,0.0,1.0,0.0,450.0,532.0,28.0,76.0,,
0.075,0.33,0.62,0.007,0.005,0.0429,0.0042,0.0085,170.0,21.0,1.0,200.0,580.0,2.0,0.499648,1.63046,0.53628,0.0003,0.0728602,0.0005,0.0005,0.022,0.0,1.0,0.0,451.0,539.0,24.4,78.0,-27.0,100.0
0.077,0.35,1.02,0.007,0.005,0.0399,0.0041,0.0075,170.0,21.0,1.0,200.0,0.0,0.0,0.598233,1.08755,0.0552546,0.0004,0.0728602,0.0005,0.0005,0.0005,0.0,1.0,0.0,,,,,-60.0,100.0
0.074,0.34,1.0,0.007,0.006,0.0424,0.0037,0.0086,170.0,21.0,1.0,200.0,250.0,14.0,0.138616,0.990853,0.446856,0.0005,0.0728602,0.0005,0.0005,0.0255,0.0,1.0,0.0,513.0,594.0,28.0,76.0,,
0.074,0.33,0.99,0.008,0.006,0.0393,0.0037,0.0088,170.0,21.0,1.0,200.0,580.0,2.0,0.215113,3.14509,0.277595,0.0004,0.0728602,0.0005,0.0005,0.0465,0.0,1.0,0.0,540.0,616.0,22.4,75.0,-20.0,100.0
0.079,0.33,1.37,0.007,0.006,0.0417,0.0034,0.0097,170.0,21.0,1.0,200.0,0.0,0.0,1.41127,1.01529,0.746084,0.0004,0.0883993,0.0005,0.0005,0.0105,0.0,1.0,0.0,,,,,-55.0,100.0
0.077,0.34,1.39,0.007,0.007,0.0409,0.0032,0.0099,170.0,21.0,1.0,200.0,250.0,14.0,0.215113,4.05512,0.168521,0.0004,0.0728602,0.0005,0.0005,0.0455,0.0,1.0,0.0,586.0,641.0,24.2,76.0,,
0.076,0.29,1.74,0.008,0.006,0.0415,0.0035,0.0092,170.0,21.0,1.0,200.0,580.0,2.0,0.326845,0.990853,0.394353,0.0004,0.097429,0.0005,0.0005,0.0006,0.0,1.0,0.0,414.0,518.0,29.2,78.4,-71.0,100.0
0.078,0.3,1.76,0.007,0.007,0.0433,0.0032,0.011,170.0,21.0,1.0,200.0,0.0,0.0,0.392476,0.44204,0.644899,0.0004,0.0797244,0.0005,0.0005,0.023,0.0,1.0,0.0,,,,,-42.0,100.0
0.062,0.22,1.17,0.007,0.006,0.033,0.0042,0.012,180.0,34.0,2.0,200.0,250.0,14.0,0.215113,1.40569,0.52643,0.00786024,0.327201,0.00495088,0.000343052,0.005,1.0,0.0,0.0,427.0,512.0,31.4,81.5,,
0.049,0.34,1.39,0.006,0.007,0.0339,0.0042,0.0065,180.0,34.0,1.0,200.0,250.0,14.0,0.538738,2.52658,0.538655,0.0656567,0.296763,0.0082714,0.00111525,0.030445,0.0,1.0,0.0,430.0,505.0,31.2,82.3,,
0.069,0.53,1.17,0.008,0.014,0.0365,0.0042,0.012,180.0,34.0,1.0,200.0,250.0,14.0,0.421031,1.40729,0.394353,0.0785663,0.281398,0.0167526,0.00131546,0.0188762,0.0,1.0,0.0,487.0,555.0,31.4,78.8,,
0.043,0.3,0.69,0.006,0.007,0.0422,0.0042,0.008,170.0,21.0,1.0,200.0,580.0,2.0,0.69776,1.44324,0.743396,0.127638,0.206265,0.016857,0.00125025,0.0301114,0.0,1.0,0.0,,,,,-50.0,53.0
0.042,0.31,0.98,0.006,0.007,0.0422,0.0042,0.008,170.0,21.0,1.0,200.0,580.0,2.0,0.215113,6.14298,0.631558,0.0388229,0.0728602,0.00495088,0.000535598,0.0116447,0.0,1.0,0.0,,,,,-70.0,21.0
0.042,0.31,0.98,0.006,0.007,0.0422,0.0042,0.008,170.0,21.0,1.0,200.0,580.0,2.0,0.215113,1.94125,0.937127,0.0178235,0.0295749,0.00495088,4.79741e-05,0.00297598,0.0,1.0,0.0,,,,,20.0,222.0
0.045,0.31,1.39,0.005,0.007,0.0422,0.0042,0.008,170.0,21.0,1.0,200.0,580.0,2.0,0.215113,0.990853,0.132277,0.0178235,0.0728602,0.00495088,0.000394131,0.00651067,0.0,1.0,0.0,,,,,-40.0,172.0
0.045,0.29,1.83,0.005,0.008,0.0422,0.0042,0.008,170.0,21.0,1.0,200.0,580.0,2.0,0.999199,0.1736,0.671535,0.0497656,0.477159,0.00432651,0.00093028,0.00165219,0.0,1.0,0.0,,,,,-60.0,76.0
0.058,0.33,0.63,0.007,0.007,0.0422,0.0042,0.008,170.0,21.0,1.0,200.0,580.0,2.0,0.833965,0.990853,0.42138,0.0178235,0.0559159,0.0147045,7.92112e-06,0.005,0.0,1.0,0.0,386.0,465.0,33.4,78.8,,
0.058,0.33,0.63,0.007,0.007,0.0422,0.0042,0.008,170.0,21.0,1.0,200.0,580.0,2.0,0.215113,0.311415,0.311693,0.033662,0.0269093,0.017244,0.000866685,0.023102,0.0,1.0,0.0,,,,,20.0,220.0
0.065,0.34,0.97,0.007,0.008,0.0422,0.0042,0.008,170.0,21.0,1.0,200.0,580.0,2.0,0.194497,0.990853,0.394353,0.0178235,0.221818,0.00590889,0.000218234,0.005,0.0,1.0,0.0,,,,,-40.0,155.0
0.066,0.35,1.36,0.007,0.008,0.0422,0.0042,0.008,170.0,21.0,1.0,200.0,580.0,2.0,0.215113,0.0159937,0.394353,0.0178235,0.252546,0.00448411,2.36441e-05,0.00417148,0.0,1.0,0.0,,,,,-60.0,72.0
0.074,0.36,1.8,0.008,0.008,0.0422,0.0042,0.008,170.0,21.0,1.0,200.0,580.0,2.0,0.647495,0.990853,0.408566,0.00384413,0.0728602,0.0110109,0.000388981,0.005,0.0,1.0,0.0,504.0,594.0,26.2,75.0,,
0.074,0.36,1.8,0.008,0.008,0.0422,0.0042,0.008,170.0,21.0,1.0,200.0,580.0,2.0,0.537541,2.96198,0.278081,0.0255125,0.0130822,0.00495088,0.000745968,0.00864639,0.0,1.0,0.0,,,,,-20.0,161.0
0.089,0.35,0.68,0.008,0.008,0.0422,0.0042,0.008,170.0,21.0,1.0,200.0,580.0,2.0,0.307035,0.990853,0.394353,0.0178235,0.103176,0.00375881,0.000542376,0.005,0.0,1.0,0.0,,,,,-50.0,45.0
0.095,0.36,1.05,0.007,0.008,0.0422,0.0042,0.008,170.0,21.0,1.0,200.0,580.0,2.0,0.981329,0.707574,0.394353,0.0870221,0.415562,0.0130547,0.000833146,0.0115396,0.0,1.0,0.0,,,,,-70.0,11.0
0.095,0.36,1.05,0.007,0.008,0.0422,0.0042,0.008,170.0,21.0,1.0,200.0,580.0,2.0,0.610605,0.990853,0.349672,0.0178235,0.147883,0.00495088,0.000581231,0.0157517,0.0,1.0,0.0,,,,,20.0,220.0
0.088,0.34,1.33,0.008,0.007,0.0422,0.0042,0.008,170.0,21.0,1.0,200.0,580.0,2.0,0.215113,1.57197,0.211696,0.0166277,0.118312,0.0149161,0.00101788,0.00952193,0.0,1.0,0.0,,,,,-40.0,155.0
0.089,0.33,1.69,0.007,0.008,0.0422,0.0042,0.008,170.0,21.0,1.0,200.0,580.0,2.0,0.641196,0.990853,0.196906,0.040785,0.411042,0.0216137,0.000795894,0.00241411,0.0,1.0,0.0,,,,,-60.0,74.0
0.147,0.36,1.02,0.007,0.007,0.0422,0.0042,0.008,170.0,21.0,1.0,200.0,580.0,2.0,1.13045,4.30971,0.595712,0.0784457,0.0728602,0.00495088,0.000542376,0.0228549,0.0,1.0,0.0,482.0,576.0,29.4,76.9,,
0.147,0.36,1.02,0.007,0.007,0.0422,0.0042,0.008,170.0,21.0,1.0,200.0,580.0,2.0,0.540649,0.990853,0.394353,0.0178235,0.0728602,0.00495088,0.000726707,0.00373279,0.0,1.0,0.0,,,,,-20.0,150.0
0.147,0.35,1.38,0.007,0.007,0.0422,0.0042,0.008,170.0,21.0,1.0,200.0,580.0,2.0,0.957911,0.809598,0.00576756,0.0720103,0.208065,0.0138054,0.000882597,0.005,0.0,1.0,0.0,,,,,-50.0,80.0
0.145,0.35,1.76,0.006,0.007,0.0422,0.0042,0.008,170.0,21.0,1.0,200.0,580.0,2.0,0.215113,4.28264,0.527209,0.0408585,0.0728602,0.00495088,0.000993928,0.00344592,0.0,1.0,0.0,,,,,-70.0,27.0
0.145,0.35,1.76,0.006,0.007,0.0422,0.0042,0.008,170.0,21.0,1.0,200.0,580.0,2.0,0.590221,0.686394,0.213948,0.0546742,0.0728602,0.0166125,0.00144693,0.00921579,0.0,1.0,0.0,,,,,20.0,160.0
0.073,0.34,1.49,0.004,0.007,0.0396,0.0016,0.0084,170.0,21.0,1.0,200.0,250.0,14.0,1.1528,4.95098,0.653613,0.0662841,0.0728602,0.00495088,0.000805157,0.00488147,0.0,1.0,4.0,482.0,548.0,33.6,78.8,,
0.071,0.36,1.46,0.004,0.006,0.04,0.0022,0.0085,170.0,21.0,1.0,200.0,0.0,0.0,0.215113,3.25833,1.44706,0.0320673,0.155073,0.00999419,0.000568969,0.0152332,0.0,1.0,4.0,,,,,-82.0,28.0
0.061,0.33,1.36,0.005,0.006,0.0419,0.0028,0.0081,170.0,21.0,1.0,200.0,0.0,0.0,1.36305,4.63335,1.42377,0.117417,0.0728602,0.00313782,0.00103191,0.0559048,0.0,1.0,4.0,,,,,-71.0,100.0
0.07,0.32,1.48,0.005,0.006,0.0373,0.0055,0.0075,170.0,21.0,1.0,200.0,0.0,0.0,0.215113,0.990853,0.673526,0.0178235,0.0549478,0.00495088,0.000542376,0.005,0.0,1.0,4.0,,,,,,
0.068,0.35,1.51,0.006,0.006,0.0351,0.01,0.0087,170.0,21.0,1.0,200.0,250.0,14.0,0.312434,2.18486,0.796764,0.0221633,0.0990005,0.000781697,0.000542376,0.00812046,0.0,1.0,4.0,499.0,569.0,29.0,77.9,,
0.065,0.39,1.53,0.005,0.006,0.0351,0.014,0.0093,170.0,21.0,1.0,200.0,0.0,0.0,0.31893,1.51446,0.65964,0.00580513,0.0728602,0.00495088,0.00066359,0.0119902,0.0,1.0,4.0,,,,,-64.0,28.0
0.07,0.48,1.64,0.005,0.006,0.029,0.021,0.0102,170.0,21.0,1.0,200.0,0.0,0.0,1.08988,1.34532,0.394353,0.00808236,0.180538,0.00496922,0.00059033,0.0100219,0.0,1.0,4.0,,,,,-55.0,100.0
0.075,0.29,1.75,0.006,0.005,0.0272,0.0255,0.0096,170.0,21.0,1.0,200.0,0.0,0.0,0.141775,0.990853,0.394353,0.0178235,0.173057,0.00362233,0.0004465,0.005,0.0,1.0,4.0,,,,,,
0.074,0.35,0.65,0.005,0.004,0.0426,0.0036,0.0073,170.0,21.0,1.0,200.0,0.0,0.0,0.215113,1.27424,0.394353,0.0005,0.0728602,0.0005,0.0005,0.0005,0.0,1.0,0.0,,,,,-45.0,100.0
0.076,0.38,0.67,0.009,0.007,0.0362,0.016,0.007,170.0,21.0,1.0,200.0,250.0,14.0,0.215113,1.02673,0.131031,0.0005,0.0728602,0.0005,0.0005,0.0005,0.0,1.0,0.0,410.0,494.0,31.4,78.9,,
0.078,0.44,0.71,0.006,0.008,0.0306,0.0225,0.0076,170.0,21.0,1.0,200.0,580.0,2.0,0.215113,2.07212,0.349931,0.0005,0.0728602,0.0005,0.0005,0.0005,0.0,1.0,0.0,381.0,484.0,31.6,78.0,-51.0,100.0
0.076,0.35,1.01,0.008,0.005,0.0401,0.0041,0.0074,170.0,21.0,1.0,200.0,0.0,0.0,0.978098,0.85458,0.43063,0.0005,0.338763,0.0005,0.0005,0.0005,0.0,1.0,0.0,,,,,-60.0,100.0
0.075,0.35,1.05,0.008,0.007,0.0361,0.014,0.0082,170.0,21.0,1.0,200.0,250.0,14.0,1.33051,1.07633,0.27798,0.0005,0.0917021,0.0005,0.0005,0.0005,0.0,1.0,0.0,434.0,517.0,30.8,78.9,,
0.078,0.43,1.1,0.007,0.005,0.0329,0.019,0.0073,170.0,21.0,1.0,200.0,580.0,2.0,0.215113,0.463297,1.23158,0.0005,0.331041,0.0005,0.0005,0.0005,0.0,1.0,0.0,399.0,492.0,32.2,80.7,-56.0,100.0
0.077,0.32,1.33,0.007,0.005,0.0422,0.0036,0.0083,170.0,21.0,1.0,200.0,0.0,0.0,1.07981,0.990853,0.394353,0.0005,0.435166,0.0005,0.0005,0.0005,0.0,1.0,0.0,,,,,-68.0,100.0
0.079,0.33,1.35,0.008,0.007,0.0375,0.014,0.0078,170.0,21.0,1.0,200.0,250.0,14.0,0.215113,0.0790523,0.394353,0.0005,0.0441677,0.0005,0.0005,0.0005,0.0,1.0,0.0,464.0,544.0,29.4,78.9,,
0.08,0.39,1.37,0.007,0.006,0.032,0.0215,0.009,170.0,21.0,1.0,200.0,580.0,2.0,0.782234,0.284095,0.573256,0.0005,0.420796,0.0005,0.0005,0.0005,0.0,1.0,0.0,429.0,537.0,28.4,77.5,-70.0,100.0
0.078,0.31,1.75,0.007,0.006,0.0417,0.0036,0.0094,170.0,21.0,1.0,200.0,0.0,0.0,0.215113,0.499898,0.586549,0.0005,0.0728602,0.0005,0.0005,0.0005,0.0,1.0,0.0,,,,,-62.0,100.0
0.075,0.32,1.83,0.006,0.007,0.0346,0.017,0.0082,170.0,21.0,1.0,200.0,250.0,14.0,0.234155,0.359896,0.321862,0.0005,0.0315555,0.0005,0.0005,0.0005,0.0,1.0,0.0,510.0,590.0,27.4,79.7,,
0.079,0.37,1.82,0.006,0.007,0.0324,0.0255,0.0081,170.0,21.0,1.0,200.0,580.0,2.0,0.653496,1.04991,0.634087,0.0005,0.0728602,0.0005,0.0005,0.0005,0.0,1.0,0.0,474.0,575.0,29.4,78.0,-61.0,100.0
0.072,0.38,1.5,0.006,0.01,0.0291,0.026,0.0077,170.0,21.0,1.0,200.0,0.0,0.0,1.82303,0.990853,0.394353,0.0998084,0.177274,0.0261253,0.00210158,0.005,0.0,1.0,0.0,509.0,578.0,26.4,78.9,,
0.068,0.39,1.51,0.007,0.009,0.0278,0.03,0.0166,170.0,21.0,1.0,200.0,0.0,0.0,0.481204,3.87375,0.973415,0.0982693,0.345522,0.00495088,0.00100161,0.00265615,0.0,1.0,0.0,546.0,611.0,24.0,78.0,,
0.067,0.4,1.48,0.006,0.008,0.0286,0.032,0.0253,170.0,21.0,1.0,200.0,0.0,0.0,0.5071,3.67008,1.11497,0.0178235,0.0728602,0.00495088,0.000542376,0.005,0.0,1.0,0.0,546.0,621.0,23.6,76.0,,
0.049,0.34,1.42,0.005,0.013,0.041,0.0042,0.009,170.0,21.0,1.0,150.0,0.0,0.0,0.215113,3.24153,0.899621,0.034802,0.0728602,0.00694879,0.000135908,0.00174114,0.0,1.0,0.0,468.0,551.0,29.4,78.7,-53.0,100.0
0.05,0.25,1.21,0.013,0.024,0.0444,0.0042,0.0143,170.0,24.0,2.1,107.0,620.0,1.0,1.84,0.05,0.34,0.01,0.06,0.0137784,0.000350015,0.0292707,0.0,1.0,0.0,673.0,680.0,23.8,,-42.0,50.0
0.04,0.22,0.81,0.009,0.011,0.03,0.012,0.008,165.0,25.0,1.0,200.0,0.0,0.0,2.19,0.770742,0.0390576,0.117937,0.29,0.024777,0.00142659,0.0148926,0.0,2.0,0.0,471.0,596.0,23.0,66.0,,
0.05,0.46,0.96,0.01,0.017,0.0443,0.0042,0.0084,170.0,21.0,1.8,100.0,250.0,16.0,0.03,0.990853,0.01,0.0178235,0.02,0.021692,0.00010347,0.00614464,0.0,1.0,0.0,449.0,542.0,,,,
0.05,0.41,0.92,0.011,0.019,0.045,0.0042,0.0114,170.0,21.0,1.8,100.0,620.0,1.0,0.02,2.41931,0.51,0.0419275,0.02,0.00495088,0.000555985,0.0119949,0.0,1.0,0.0,538.0,626.0,,,,
0.055,0.48,1.62,0.011,0.021,0.0371,0.0042,0.0093,170.0,21.0,1.8,100.0,250.0,16.0,0.02,6.88067,0.54,0.209489,0.02,0.0112808,0.00189241,0.0312446,0.0,1.0,0.0,673.0,737.0,,,,
0.06,0.39,1.95,0.01,0.021,0.0395,0.0042,0.0125,170.0,21.0,1.8,100.0,620.0,1.0,0.02,0.628912,0.34,0.0178235,0.02,0.00265657,0.00011206,0.005,0.0,1.0,0.0,632.0,709.0,,,,
0.03,0.45,0.78,0.013,0.01,0.0336,0.014,0.0095,180.0,23.0,1.0,250.0,0.0,0.0,0.215113,0.990853,0.394353,0.00825591,0.457708,0.009,0.000849406,0.0121732,0.0,1.0,0.0,,,,,-40.0,12.0
0.032,0.45,1.27,0.008,0.01,0.0321,0.013,0.0094,180.0,23.0,1.0,250.0,0.0,0.0,0.137259,2.65041,0.259198,0.103381,0.0728602,0.009,0.000529932,0.00257746,0.0,1.0,0.0,,,,,-60.0,10.0
0.031,0.42,1.71,0.004,0.01,0.0297,0.011,0.0109,180.0,23.0,1.0,250.0,0.0,0.0,0.804973,1.71591,0.517298,0.10102,0.151952,0.008,0.00146362,0.0118213,0.0,1.0,0.0,488.0,,,,,
0.031,0.42,1.71,0.004,0.01,0.0297,0.011,0.0109,180.0,23.0,1.0,250.0,0.0,0.0,0.215113,2.19572,0.567594,0.00119108,0.0728602,0.008,0.000381692,0.0201037,0.0,1.0,0.0,,,,,20.0,195.0
0.032,0.45,2.05,0.002,0.01,0.032,0.012,0.0119,180.0,23.0,1.0,250.0,0.0,0.0,0.215113,0.990853,0.394353,0.0178235,0.0221216,0.009,0.000623598,0.005,0.0,1.0,0.0,,,,,0.0,167.0
0.059,0.34,0.77,0.01,0.01,0.0306,0.011,0.0066,180.0,23.0,1.0,250.0,0.0,0.0,0.658056,0.328912,0.314541,0.114592,0.944179,0.007,0.00110106,0.00761282,0.0,1.0,0.0,,,,,-20.0,157.0
0.059,0.33,1.09,0.008,0.01,0.031,0.01,0.0064,180.0,23.0,1.0,250.0,0.0,0.0,0.215113,3.88783,0.331895,0.102479,0.0728602,0.007,0.0009023,0.0184238,0.0,1.0,0.0,,,,,-40.0,86.0
0.059,0.3,1.44,0.006,0.01,0.0305,0.009,0.0065,180.0,23.0,1.0,250.0,0.0,0.0,0.431964,2.66808,0.662612,0.0796023,0.0315558,0.007,0.000811809,0.0162264,0.0,1.0,0.0,,,,,-60.0,20.0
0.065,0.33,1.83,0.003,0.01,0.0291,0.009,0.0076,180.0,23.0,1.0,250.0,0.0,0.0,0.215113,0.990853,0.0777504,0.0178235,0.593414,0.007,0.00156693,0.00364122,0.0,1.0,0.0,496.0,,,,,
0.065,0.33,1.83,0.003,0.01,0.0291,0.009,0.0076,180.0,23.0,1.0,250.0,0.0,0.0,1.24038,2.22962,0.525746,0.1456,0.359243,0.007,0.0020069,0.031116,0.0,1.0,0.0,,,,,20.0,174.0
0.09,0.41,0.78,0.013,0.01,0.0421,0.014,0.0036,180.0,23.0,1.0,250.0,0.0,0.0,0.517396,3.52691,0.766275,0.099189,0.151733,0.003,0.00120654,0.0279291,0.0,1.0,0.0,,,,,0.0,148.0
0.089,0.35,1.18,0.011,0.01,0.0404,0.012,0.0073,180.0,23.0,1.0,250.0,0.0,0.0,0.449029,3.60577,1.20287,0.117976,0.045314,0.008,0.000926646,0.0197964,0.0,1.0,0.0,,,,,-20.0,162.0
0.088,0.37,1.59,0.011,0.01,0.0491,0.012,0.0077,180.0,23.0,1.0,250.0,0.0,0.0,0.58332,0.990853,0.0369353,0.0178235,0.136076,0.003,0.000187485,0.005,0.0,1.0,0.0,,,,,-40.0,110.0
0.098,0.39,2.25,0.008,0.014,0.033,0.013,0.0088,180.0,23.0,1.0,250.0,0.0,0.0,0.462192,0.990853,0.41235,0.0178235,0.0728602,0.003,0.000177516,0.00289796,0.0,1.0,0.0,,,,,-60.0,53.0
0.12,0.43,0.86,0.011,0.014,0.0329,0.015,0.0054,180.0,23.0,1.0,250.0,0.0,0.0,0.844303,3.55382,1.04428,0.0894148,0.0728602,0.005,0.00105613,0.0120268,0.0,1.0,0.0,445.0,,,,,
0.12,0.43,0.86,0.011,0.014,0.0329,0.015,0.0054,180.0,23.0,1.0,250.0,0.0,0.0,0.997002,3.24027,0.763278,0.159256,0.767277,0.005,0.00133691,0.0261841,0.0,1.0,0.0,,,,,20.0,190.0
0.12,0.44,1.35,0.01,0.014,0.0326,0.015,0.0055,180.0,23.0,1.0,250.0,0.0,0.0,0.215113,0.452207,0.125622,0.0178235,0.161281,0.003,0.000315327,0.005,0.0,1.0,0.0,,,,,0.0,162.0
0.13,0.37,1.83,0.01,0.011,0.0318,0.013,0.0063,180.0,23.0,1.0,250.0,0.0,0.0,0.423615,6.77373,1.41483,0.178867,0.405719,0.003,0.00169894,0.0148032,0.0,1.0,0.0,,,,,-20.0,136.0
0.11,0.36,2.18,0.008,0.011,0.0342,0.012,0.0074,180.0,23.0,1.0,250.0,0.0,0.0,0.715574,2.66921,0.844792,0.0413684,0.0728602,0.003,0.000357171,0.0127435,0.0,1.0,0.0,,,,,-40.0,64.0
0.055,0.42,0.9,0.016,0.012,0.078,0.022,0.0046,285.0,32.0,2.9,200.0,200.0,14.0,0.55,0.06,0.365171,0.012,0.0447849,0.002,0.0001,0.007,0.0,1.0,2.0,,552.0,,,,
0.066,0.56,1.14,0.01,0.011,0.0495,0.003,0.0034,280.0,30.0,2.8,200.0,200.0,14.0,0.02,0.07,0.370592,0.016,0.0728602,0.004,0.0001,0.003,0.0,1.0,2.0,,533.0,,,,
0.068,0.35,1.06,0.006,0.009,0.0416,0.0036,0.0063,170.0,21.0,1.0,200.0,580.0,2.0,1.19083,0.027,0.394353,0.0422461,0.134643,0.0177971,0.000810487,0.0168786,0.0,1.0,0.0,,,,,-78.0,100.0
0.075,0.35,1.09,0.006,0.008,0.0424,0.0052,0.0087,170.0,21.0,1.0,200.0,0.0,0.0,0.0400574,1.22,0.518379,0.0178235,0.0728602,0.00495088,0.000285871,0.000675715,0.0,1.0,0.0,,,,,-57.0,100.0
0.073,0.34,1.07,0.006,0.007,0.043,0.004,0.0089,170.0,21.0,1.0,200.0,580.0,2.0,0.215113,1.97,0.430851,0.0173821,0.0728602,0.00495088,0.000390452,0.0159789,0.0,1.0,0.0,,,,,-40.0,100.0
0.05,0.27,0.75,0.006,0.01,0.019,0.007,0.008,680.0,34.0,3.3,200.0,0.0,0.0,0.75,0.5,0.23,0.13166,1.05,0.018,0.0021,0.032,0.0,1.0,1.0,576.0,,,,,
0.05,0.24,0.97,0.005,0.012,0.023,0.009,0.008,670.0,34.0,4.6,200.0,0.0,0.0,0.53,0.4,0.26,0.135928,0.82,0.014,0.0021,0.02,0.0,1.0,1.0,552.0,,,,,
0.05,0.36,0.86,0.007,0.012,0.02,0.005,0.008,660.0,34.0,5.3,200.0,0.0,0.0,1.5,0.54,0.31,0.165299,0.87,0.016,0.0017,0.031,0.0,1.0,1.0,585.0,,,,,
0.07,0.53,1.72,0.012,0.016,0.0176,0.024,0.0054,700.0,32.0,4.8,200.0,0.0,0.0,0.01,0.03,0.01,0.01,0.03,0.021,0.0007,0.00463052,0.0,1.0,1.0,462.0,638.0,31.0,67.0,-28.0,35.0
0.08,0.62,1.85,0.013,0.017,0.0152,0.022,0.0052,700.0,32.0,4.8,200.0,0.0,0.0,0.45,0.05,0.01,0.01,0.81,0.024,0.001,0.00471442,0.0,1.0,1.0,504.0,743.0,27.0,46.0,18.0,35.0
0.06,0.28,0.55,0.024,0.041,0.0422,0.007,0.007,170.0,21.0,2.2,250.0,0.0,0.0,1.26,0.0,0.0,0.01,0.02,0.0035,0.000542376,0.006,0.0,1.0,0.0,475.8,564.1,28.0,70.5,,
0.08,0.33,0.65,0.015,0.026,0.0422,0.02,0.014,170.0,21.0,2.4,250.0,600.0,2.1,0.5,0.35,0.008,0.004,0.02,0.0045,0.000631234,0.015,0.0,1.0,0.0,500.3,600.4,22.7,73.7,,
0.09,0.44,0.9,0.01,0.027,0.0422,0.02,0.007,170.0,21.0,1.8,150.0,0.0,0.0,0.0,0.0,0.0,0.0,0.0,0.0088,0.000290415,0.0,0.0,1.0,0.0,486.8,569.3,24.0,71.0,,
0.06,0.53,1.15,0.013,0.015,0.0422,0.0,0.01,170.0,21.0,1.8,150.0,600.0,2.1,0.0,0.02,0.0,0.0,0.0,0.0057,0.00107305,0.0,0.0,1.0,0.0,,,,,,
0.08,0.49,0.9,0.014,0.029,0.0422,0.005,0.017,170.0,21.0,1.9,150.0,0.0,0.0,0.0,0.05,0.0,0.0,0.0,0.0108,0.000440409,0.0,0.0,1.0,0.0,486.8,577.5,20.5,70.2,,
0.1,0.18,1.6,0.015,0.029,0.0422,0.002,0.011,170.0,21.0,2.4,200.0,600.0,2.1,0.0,0.0,0.5,0.004,0.14,0.008,0.000357989,0.01,0.0,1.0,1.0,605.3,694.5,25.5,67.5,,
0.08,0.21,1.2,0.014,0.022,0.0422,0.0,0.01,170.0,21.0,1.7,200.0,0.0,0.0,0.0,0.0,0.0,0.0,0.0,0.0128,6.68731e-05,0.006,0.0,1.0,1.0,453.2,596.4,30.0,74.0,,
0.11,0.36,1.61,0.017,0.03,0.0305,0.01,0.0095,550.0,28.0,3.6,100.0,0.0,0.0,0.06,0.052,0.02,0.01,0.12,0.014,0.001,0.02,0.0,1.0,1.0,542.0,625.0,19.0,64.0,-7.0,70.0
0.094,0.18,1.05,0.013,0.017,0.0511,0.01,0.01,550.0,28.0,3.6,100.0,0.0,0.0,0.1,0.05,0.01,0.01,0.11,0.005,0.001,0.01,0.0,1.0,1.0,380.0,486.0,22.0,75.0,1.0,70.0
0.076,0.19,1.16,0.02,0.02,0.0609,0.01,0.0131,550.0,28.0,3.6,100.0,0.0,0.0,0.17,0.07,0.02,0.02,0.17,0.005,0.001,0.02,0.0,1.0,1.0,441.0,557.0,16.0,69.0,34.0,70.0
0.05,0.38,1.42,0.007,0.009,0.0422,0.0042,0.008,170.0,21.0,0.6,200.0,250.0,14.0,1.48093,0.990853,0.394353,0.101453,0.987955,0.0217171,0.000858899,0.0207607,0.0,1.0,0.0,511.0,575.0,26.8,78.7,,
0.037,0.29,0.6,0.006,0.009,0.0422,0.0042,0.008,170.0,21.0,1.0,200.0,0.0,0.0,0.62876,1.34298,0.292808,0.0388033,0.623569,0.000720872,0.000136293,0.0032186,0.0,1.0,0.0,,,,,-31.0,100.0
0.051,0.32,1.8,0.006,0.012,0.0422,0.0042,0.008,170.0,21.0,1.0,200.0,250.0,14.0,0.215113,1.41553,0.394353,0.074791,0.366195,0.0279015,0.000941139,0.0137927,0.0,1.0,0.0,507.0,587.0,29.2,76.9,,
0.036,0.24,0.89,0.008,0.01,0.0422,0.0042,0.008,170.0,21.0,2.2,200.0,0.0,0.0,0.345836,1.8558,0.527986,0.091639,0.374091,0.00429027,0.00112193,0.0125032,0.0,1.0,0.0,,,,,-46.0,100.0
0.043,0.2,0.52,0.009,0.01,0.0422,0.0042,0.008,170.0,21.0,4.3,200.0,250.0,14.0,0.992283,0.548071,0.706663,0.106801,0.0430537,0.021996,0.000581602,0.005,0.0,1.0,0.0,341.0,453.0,32.6,78.8,,
0.043,0.24,1.37,0.008,0.013,0.0422,0.0042,0.008,170.0,21.0,4.3,200.0,0.0,0.0,0.215113,0.990853,0.394353,0.0178235,0.0728602,0.00804423,8.32915e-05,0.005,0.0,1.0,0.0,,,,,-27.0,100.0
0.046,0.31,1.4,0.007,0.012,0.0422,0.0042,0.008,170.0,21.0,1.0,150.0,0.0,0.0,0.602726,0.990853,0.16149,0.0708406,0.302301,0.0349032,0.000799751,0.0157013,0.0,1.0,0.0,486.0,556.0,28.6,77.0,-41.0,100.0
0.047,0.32,1.75,0.007,0.015,0.0422,0.0042,0.008,170.0,21.0,1.0,240.0,0.0,0.0,0.215113,0.990853,0.0157591,0.0178235,0.493578,0.0188624,0.000681698,0.0154478,0.0,1.0,0.0,501.0,566.0,31.4,77.8,-48.0,100.0
0.12,0.29,1.46,0.025,0.028,0.0422,0.005,0.008,650.0,33.0,3.3,300.0,0.0,0.0,0.056,0.056,0.005,0.12,0.09,0.018,0.000723395,0.004,0.0,1.0,1.0,570.0,,29.0,68.0,,
0.14,0.33,1.67,0.02,0.026,0.0422,0.008,0.008,650.0,33.0,3.3,300.0,250.0,2.0,0.07,0.066,0.188,0.098,0.01,0.016,0.000878278,0.008,0.0,1.0,1.0,784.0,,17.0,64.0,,
0.12,0.3,1.51,0.006,0.013,0.0422,0.005,0.008,650.0,33.0,3.3,300.0,0.0,0.0,0.09,0.07,0.27,0.036,0.15,0.016,0.000209138,0.005,0.0,1.0,1.0,592.0,,27.0,68.0,,
0.08,0.3,1.35,0.013,0.014,0.042,0.005,0.009,650.0,33.0,3.3,300.0,600.0,0.75,0.03,0.03,0.005,0.046,0.043,0.023,0.00121492,0.015,0.0,1.0,1.0,522.0,670.0,26.0,63.0,,
0.12,0.26,1.4,0.012,0.014,0.042,0.005,0.0138,650.0,33.0,3.3,300.0,0.0,0.0,0.057,0.05,0.009,0.056,0.106,0.014,0.00140851,0.005,0.0,1.0,1.0,522.0,689.0,28.0,60.0,,
0.1,0.35,1.54,0.009,0.016,0.042,0.005,0.0138,650.0,33.0,3.3,300.0,600.0,0.75,0.06,0.049,0.18,0.057,0.11,0.016,0.0012807,0.005,0.0,1.0,1.0,593.0,692.0,26.0,65.0,,
0.11,0.25,1.33,0.008,0.011,0.044,0.005,0.0145,650.0,33.0,3.3,300.0,0.0,0.0,0.067,0.053,0.44,0.097,0.072,0.018,0.000930003,0.005,0.0,1.0,1.0,559.0,735.0,25.0,62.0,,
0.14,0.38,1.65,0.028,0.009,0.0422,0.0,0.008,650.0,33.0,3.3,300.0,600.0,0.75,0.281734,0.193206,0.5,0.005,0.0984317,0.00495088,0.00108683,0.0,0.0,1.0,1.0,644.0,714.0,34.0,63.0,,
0.11,0.33,1.41,0.019,0.023,0.0422,0.0042,0.008,450.0,30.0,1.9,300.0,0.0,0.0,0.065,0.082,0.016,0.0640632,0.19,0.024,0.00115986,0.018,0.0,1.0,1.0,420.0,560.0,25.0,,,
0.09,0.46,1.81,0.017,0.024,0.034,0.0042,0.01,650.0,33.0,3.3,300.0,0.0,0.0,0.1,0.08,0.28,0.105858,0.21,0.026,0.00118992,0.014,0.0,1.0,1.0,620.0,712.0,22.0,58.0,,
0.09,0.37,1.03,0.004,0.01,0.047,0.01,0.037,180.0,23.0,1.3,175.0,740.0,2.0,0.05,8.8,1.03,0.25,0.01,0.01,0.00201789,0.08,0.0,1.0,0.0,,,,,,
0.06,0.34,1.08,0.007,0.014,0.048,0.01,0.011,116.0,23.0,1.3,175.0,720.0,2.0,0.69,9.0,1.03,0.29,0.02,0.01,0.00202609,0.01,0.0,1.0,0.0,,,,,,
0.06,0.34,1.08,0.007,0.014,0.048,0.01,0.011,116.0,23.0,1.3,175.0,760.0,8.0,0.69,9.0,1.03,0.29,0.02,0.01,0.00150193,0.01,0.0,1.0,0.0,,,,,,
0.07,0.23,1.0,0.002,0.006,0.046,0.01,0.025,116.0,23.0,1.3,175.0,740.0,8.0,0.58,8.3,0.93,0.24,0.01,0.01,0.00182226,0.034,0.0,1.0,0.0,,,,,,
0.06,0.32,1.23,0.002,0.002,0.038,0.01,0.008,163.0,25.0,1.2,175.0,720.0,8.0,1.01,8.4,0.89,0.22,0.01,0.01,0.00152123,0.03,0.0,1.0,0.0,,,,,,
0.1,0.27,0.6,0.002,0.011,0.0422,0.002,0.039,400.0,31.5,1.4,177.0,746.0,4.0,0.13,8.75,1.02,0.2,0.09,0.016,0.001,0.0339408,1.0,1.0,9.0,650.0,747.0,19.0,63.0,,
0.09,0.34,0.48,0.004,0.011,0.0422,0.002,0.026,390.0,11.5,1.9,177.0,746.0,4.0,0.08,8.6,0.98,0.22,0.05,5e-07,0.001,0.0368569,0.0,1.0,8.0,661.0,756.0,24.0,73.0,,
0.1,0.22,0.55,0.009,0.013,0.026,0.0042,0.008,500.0,32.0,2.0,250.0,690.0,10.0,0.21,2.68,1.05,0.148168,0.0728602,0.02,0.00122399,0.00461983,0.0,1.0,5.0,492.0,610.0,27.0,,,
0.1,0.22,0.55,0.009,0.013,0.026,0.0042,0.008,500.0,32.0,2.0,250.0,690.0,10.0,0.21,2.68,1.05,0.162739,0.0728602,0.02,0.00173724,0.0409265,0.0,1.0,5.0,,,,,-60.0,15.0
0.06,0.49,0.67,0.011,0.009,0.085,0.0042,0.008,500.0,32.0,2.0,250.0,690.0,10.0,0.21,2.63,1.06,0.0705594,0.0728602,0.015,0.000927242,0.0192323,0.0,1.0,5.0,,,,,-40.0,15.0
0.1,0.19,0.53,0.007,0.007,0.022,0.0042,0.008,500.0,32.0,2.0,250.0,690.0,10.0,0.2,2.7,1.03,0.0905352,0.0189254,0.015,0.000993688,0.0369568,0.0,1.0,5.0,,,,,-60.0,53.0
0.09,0.24,0.68,0.013,0.006,0.052,0.0042,0.008,500.0,30.0,3.6,200.0,690.0,10.0,0.2,2.22,1.03,0.115118,0.325215,0.01,0.000960737,0.005,0.0,1.0,6.0,,,,,-40.0,81.0
0.11,0.14,0.73,0.002,0.005,0.0254,0.0042,0.0026,500.0,29.0,2.9,200.0,690.0,8.0,2.31906,2.3,1.03,0.27,0.444977,0.0313594,0.00166438,0.02,1.0,0.0,1.0,,,,,-40.0,17.0
0.12,0.14,1.03,0.002,0.006,0.0166,0.0042,0.0022,500.0,29.0,2.9,200.0,690.0,8.0,1.22487,2.3,1.03,0.27,0.364766,0.0281538,0.00243587,0.02,1.0,0.0,1.0,,,,,-40.0,37.0
0.14,0.18,0.75,0.002,0.005,0.0256,0.0042,0.0021,500.0,29.0,2.9,200.0,690.0,8.0,1.70257,2.3,1.01,0.27,0.75252,0.0400013,0.00244243,0.02,1.0,0.0,1.0,,770.0,,,,
0.14,0.18,0.75,0.002,0.005,0.0256,0.0042,0.0021,500.0,29.0,2.9,200.0,690.0,8.0,2.03926,2.3,1.01,0.27,0.461055,0.037899,0.00145249,0.02,1.0,0.0,1.0,,,,,-20.0,80.0
0.084,0.415,1.24,0.011,0.015,0.048,0.0042,0.0086,170.0,21.0,2.4,100.0,550.0,1.83,0.05,0.037,0.385,0.0181832,0.105,0.0154524,0.000592119,0.0198881,0.0,1.0,1.0,529.0,635.0,25.6,70.0,,
0.084,0.415,1.24,0.011,0.015,0.048,0.0042,0.0086,170.0,21.0,2.4,100.0,550.0,1.83,0.05,0.037,0.385,0.0178235,0.105,0.00495088,0.000542376,0.0133461,0.0,1.0,1.0,,,,,,
0.084,0.3,0.54,0.005,0.008,0.066,0.0042,0.0066,170.0,21.0,2.4,175.0,690.0,2.33,0.036,2.2,1.05,0.000630088,0.035,0.00610817,0.000483382,0.00411047,0.0,1.0,1.0,,,,,-50.0,40.0
0.06,0.2,1.15,0.007,0.017,0.035,0.0042,0.0097,170.0,21.0,2.4,125.0,605.0,1.92,0.16,0.052,0.45,0.0178235,0.128,0.00495088,0.000615226,0.010069,0.0,1.0,1.0,,,,,-10.0,80.0
0.048,0.13,1.06,0.014,0.016,0.0768,0.0042,0.0266,300.0,28.0,1.96,150.0,690.0,10.0,0.23,2.02,1.3,0.02,0.0439917,0.00624312,0.00081666,0.0115599,0.0,1.0,2.0,,,,,-60.0,6.0
0.048,0.13,1.06,0.014,0.016,0.0768,0.0042,0.0266,300.0,28.0,1.96,150.0,690.0,10.0,0.23,2.02,1.3,0.02,0.0728602,0.00256695,0.000843694,0.0125678,0.0,1.0,2.0,,,,,40.0,160.0
0.042,0.14,1.33,0.012,0.015,0.0735,0.0042,0.0236,300.0,28.0,1.96,150.0,690.0,10.0,0.26,2.39,1.21,0.015,0.0728602,0.00495088,0.000307008,0.0050691,0.0,1.0,2.0,,,,,-60.0,12.0
0.042,0.14,1.33,0.012,0.015,0.0735,0.0042,0.0236,300.0,28.0,1.96,150.0,690.0,10.0,0.26,2.39,1.21,0.015,0.0728602,0.00495088,0.000355046,0.00213038,0.0,1.0,2.0,,,,,40.0,135.0
0.047,0.42,1.0,0.015,0.016,0.0695,0.0042,0.0165,300.0,28.0,2.08,150.0,690.0,10.0,0.17,2.29,1.04,0.018,0.0728602,0.00495088,4.87438e-05,0.0307106,0.0,1.0,2.0,,,,,-20.0,22.0
0.074,0.27,1.11,0.009,0.024,0.0556,0.0042,0.0113,290.0,29.0,2.0,150.0,690.0,10.0,0.17,2.3,0.96,0.018,0.0728602,0.00495088,0.000542376,0.005,0.0,1.0,2.0,595.0,675.0,24.0,69.0,,
0.074,0.27,1.11,0.009,0.024,0.0556,0.0042,0.0113,290.0,29.0,2.0,150.0,690.0,10.0,0.17,2.3,0.96,0.018,0.299722,0.00244969,0.0008211,0.0157129,0.0,1.0,2.0,,,,,0.0,31.0
0.055,0.37,0.82,0.021,0.008,0.0694,0.005,0.016,170.0,21.0,3.6,177.0,704.0,4.5,0.086,2.5,0.99,0.01,0.51,0.013,0.000199248,0.00470949,0.0,1.0,3.0,457.0,569.0,25.8,67.0,,
0.051,0.43,0.76,0.024,0.019,0.041,0.0042,0.008,150.0,37.5,1.0,300.0,690.0,3.0,0.132746,2.8,1.1,0.0852514,0.0728602,0.00975685,0.00151045,0.00107293,0.0,1.0,0.0,614.0,713.0,18.0,67.0,,
0.065,0.39,0.77,0.029,0.016,0.056,0.0042,0.008,150.0,37.5,1.0,300.0,690.0,3.0,0.207571,2.4,1.4,0.176155,0.192347,0.0224194,0.00119831,0.0127073,0.0,1.0,0.0,581.0,693.0,20.0,69.0,,
0.05,0.18,0.63,0.015,0.018,0.075,0.0042,0.008,150.0,37.5,1.0,300.0,690.0,3.0,0.215113,2.0,0.578694,0.0492765,0.395215,0.00495088,0.00125824,0.005,0.0,1.0,0.0,543.0,649.0,20.0,71.0,,
0.11,0.48,1.13,0.015,0.018,0.052,0.0042,0.008,150.0,37.5,1.0,300.0,690.0,3.0,0.845439,2.4,0.9,0.0659072,0.0728602,0.00495088,0.000764962,0.005,0.0,1.0,0.0,,,,,,
0.05,0.34,0.96,0.017,0.018,0.0422,0.0042,0.008,150.0,37.5,1.0,300.0,690.0,3.0,1.24927,2.4,1.1,0.042718,0.0728602,0.00343034,0.000420094,0.00358318,0.0,1.0,0.0,,,,,,
0.08,0.25,0.8,0.01,0.01,0.0422,0.0042,0.008,525.0,30.0,1.75,210.0,700.0,20.0,0.03,2.3,1.05,0.01,0.02,0.00341726,0.000627289,0.0168115,0.0,1.0,1.0,,,,,-10.0,197.0
0.08,0.25,0.8,0.01,0.01,0.0422,0.0042,0.008,525.0,30.0,1.75,210.0,700.0,20.0,0.03,2.3,1.05,0.01,0.02,0.00416961,0.000446834,0.00938624,0.0,1.0,1.0,,,,,-30.0,171.0
0.08,0.25,0.8,0.01,0.01,0.0422,0.0042,0.008,525.0,30.0,1.75,210.0,700.0,20.0,0.03,2.3,1.05,0.01,0.02,0.00448448,0.000787657,0.0229664,0.0,1.0,1.0,509.0,610.0,,,,
0.08,0.25,0.8,0.01,0.01,0.0422,0.0042,0.008,525.0,30.0,1.75,210.0,700.0,20.0,0.03,2.3,1.05,0.01,0.02,0.00495088,0.000500006,0.005,0.0,1.0,1.0,,,,,-10.0,199.0
0.095,0.35,0.9,0.008,0.02,0.0269,0.0042,0.0054,450.0,30.0,2.025,250.0,200.0,1.0,0.0,0.0,0.0,0.0,0.0,0.017,0.000224161,0.0,0.0,1.0,1.0,394.0,496.0,34.2,78.0,,
0.088,0.35,1.38,0.004,0.022,0.0268,0.0042,0.0109,450.0,30.0,2.025,250.0,200.0,1.0,0.0,0.0,0.0,0.0,0.0,0.02,0.000522506,0.0,0.0,1.0,1.0,456.0,563.0,30.2,75.0,,
0.092,0.31,1.33,0.005,0.016,0.0252,0.0042,0.0084,650.0,30.0,2.925,250.0,200.0,1.0,0.0,0.0,0.0,0.0,0.0,0.017,0.000518024,0.0,0.0,1.0,1.0,430.0,541.0,31.4,73.0,,
0.08,0.36,1.02,0.014,0.014,0.0513,0.0042,0.0051,650.0,30.0,2.925,250.0,200.0,1.0,0.0,0.0,0.0,0.0,0.0,0.023,0.000685033,0.0,0.0,1.0,1.0,386.0,483.0,30.8,74.0,,
0.071,0.4,1.55,0.013,0.019,0.0423,0.0042,0.0081,550.0,30.0,2.475,250.0,200.0,1.0,0.0,0.0,0.0,0.0,0.0,0.02,0.000852867,0.0,0.0,1.0,1.0,442.0,547.0,28.2,73.0,,
0.073,0.39,1.55,0.012,0.018,0.0463,0.0042,0.0072,650.0,30.0,2.925,250.0,200.0,1.0,0.0,0.0,0.0,0.0,0.0,0.022,0.000542376,0.0,0.0,1.0,1.0,435.0,546.0,27.0,73.0,,
0.073,0.34,0.64,0.008,0.007,0.045,0.0007,0.0063,170.0,21.0,1.0,200.0,250.0,14.0,0.0,0.0,0.0,0.0005,0.0,0.0005,0.0005,0.0005,0.0,0.0,0.0,,,,,-46.0,100.0
0.065,0.26,0.61,0.007,0.007,0.0488,0.0005,0.0086,170.0,21.0,1.0,200.0,250.0,14.0,2.14,0.0,0.0,0.0005,0.0,0.0005,0.0005,0.0005,0.0,0.0,0.0,443.0,528.0,32.4,76.0,,
0.07,0.31,0.66,0.006,0.008,0.043,0.0005,0.0079,170.0,21.0,1.0,200.0,250.0,14.0,0.0,0.0,0.24,0.0005,0.0,0.0005,0.0005,0.0005,0.0,0.0,0.0,,,,,-87.0,28.0
0.075,0.3,0.63,0.008,0.008,0.0438,0.0005,0.008,170.0,21.0,1.0,200.0,250.0,14.0,0.0,0.0,1.03,0.0005,0.0,0.0005,0.0005,0.0005,0.0,0.0,0.0,,,,,7.0,100.0
0.074,0.25,0.58,0.008,0.01,0.05,0.0004,0.0089,170.0,21.0,1.0,200.0,250.0,14.0,0.0,1.59,0.0,0.0005,0.0,0.0005,0.0005,0.0005,0.0,0.0,0.0,494.0,593.0,19.0,71.9,,
0.076,0.28,0.64,0.008,0.008,0.0492,0.0008,0.0081,170.0,21.0,1.0,200.0,250.0,14.0,0.0,2.1,0.0,0.0005,0.0,0.0005,0.0005,0.0005,0.0,0.0,0.0,,,,,-40.0,28.0
0.065,0.3,0.62,0.007,0.009,0.0519,0.0004,0.0072,170.0,21.0,1.0,200.0,250.0,14.0,0.0,0.0,0.0,0.0005,1.03,0.0005,0.0005,0.0005,0.0,0.0,0.0,,,,,-54.0,100.0
0.063,0.31,0.65,0.006,0.009,0.0472,0.0038,0.0085,170.0,21.0,1.0,200.0,250.0,14.0,0.88,0.0,0.0,0.0005,0.0,0.0005,0.0005,0.0005,0.0,0.0,0.0,423.0,501.0,31.8,77.0,,
0.064,0.27,0.61,0.007,0.007,0.0454,0.0032,0.0091,170.0,21.0,1.0,200.0,250.0,14.0,2.17,0.0,0.0,0.0005,0.0,0.0005,0.0005,0.0005,0.0,0.0,0.0,,,,,-113.0,28.0
0.073,0.34,0.66,0.007,0.007,0.0433,0.0042,0.007,170.0,21.0,1.0,200.0,250.0,14.0,0.0,0.0,0.5,0.0005,0.0,0.0005,0.0005,0.0005,0.0,0.0,0.0,,,,,-48.0,100.0
0.077,0.32,0.66,0.008,0.01,0.0457,0.0034,0.0075,170.0,21.0,1.0,200.0,250.0,14.0,0.0,1.03,0.0,0.0005,0.0,0.0005,0.0005,0.0005,0.0,0.0,0.0,490.0,558.0,21.0,77.9,,
0.078,0.26,0.62,0.007,0.005,0.0472,0.0029,0.01,170.0,21.0,1.0,200.0,250.0,14.0,0.0,1.6,0.0,0.0005,0.0,0.0005,0.0005,0.0005,0.0,0.0,0.0,,,,,-35.0,28.0
0.063,0.3,0.64,0.008,0.008,0.0453,0.0043,0.0074,170.0,21.0,1.0,200.0,250.0,14.0,0.0,0.0,0.0,0.0005,0.53,0.0005,0.0005,0.0005,0.0,0.0,0.0,,,,,-62.0,100.0
0.078,0.26,1.43,0.006,0.006,0.0481,0.0005,0.0086,170.0,21.0,1.0,200.0,250.0,14.0,0.0,0.0,0.0,0.0005,0.0,0.0005,0.0005,0.0005,0.0,0.0,0.0,434.0,526.0,29.2,78.0,,
0.073,0.28,1.39,0.007,0.007,0.0454,0.0005,0.0076,170.0,21.0,1.0,200.0,250.0,14.0,0.95,0.0,0.0,0.0005,0.0,0.0005,0.0005,0.0005,0.0,0.0,0.0,,,,,-48.0,28.0
0.076,0.28,1.53,0.008,0.006,0.0444,0.0005,0.0084,170.0,21.0,1.0,200.0,250.0,14.0,0.0,0.0,0.25,0.0005,0.0,0.0005,0.0005,0.0005,0.0,0.0,0.0,,,,,-24.0,100.0
0.076,0.24,1.41,0.008,0.006,0.0447,0.0005,0.0085,170.0,21.0,1.0,200.0,250.0,14.0,0.0,0.0,1.11,0.0005,0.0,0.0005,0.0005,0.0005,0.0,0.0,0.0,594.0,699.0,19.2,68.6,,
0.08,0.28,1.48,0.007,0.006,0.0436,0.0005,0.0094,170.0,21.0,1.0,200.0,250.0,14.0,0.0,1.07,0.0,0.0005,0.0,0.0005,0.0005,0.0005,0.0,0.0,0.0,,,,,-70.0,28.0
0.076,0.28,1.44,0.007,0.007,0.0476,0.0005,0.0084,170.0,21.0,1.0,200.0,250.0,14.0,0.0,1.96,0.0,0.0005,0.0,0.0005,0.0005,0.0005,0.0,0.0,0.0,,,,,24.0,100.0
0.075,0.24,1.41,0.006,0.008,0.0484,0.0005,0.0089,170.0,21.0,1.0,200.0,250.0,14.0,0.0,0.0,0.0,0.0005,1.06,0.0005,0.0005,0.0005,0.0,0.0,0.0,492.0,566.0,25.0,75.0,,
0.074,0.28,1.46,0.008,0.008,0.0443,0.0035,0.0079,170.0,21.0,1.0,200.0,250.0,14.0,0.0,0.0,0.0,0.0005,0.0,0.0005,0.0005,0.0005,0.0,0.0,0.0,,,,,-88.0,28.0
0.068,0.27,1.46,0.008,0.007,0.0436,0.0034,0.0078,170.0,21.0,1.0,200.0,250.0,14.0,2.24,0.0,0.0,0.0005,0.0,0.0005,0.0005,0.0005,0.0,0.0,0.0,,,,,-58.0,100.0
0.073,0.29,1.53,0.007,0.01,0.0438,0.0027,0.0079,170.0,21.0,1.0,200.0,250.0,14.0,0.0,1.53,0.0,0.0005,0.0,0.0005,0.0005,0.0005,0.0,0.0,0.0,650.0,710.0,18.4,73.0,,
0.078,0.29,1.48,0.007,0.01,0.0438,0.0028,0.0082,170.0,21.0,1.0,200.0,250.0,14.0,0.0,1.96,0.0,0.0005,0.0,0.0005,0.0005,0.0005,0.0,0.0,0.0,,,,,-70.0,28.0
0.077,0.25,1.43,0.007,0.008,0.0456,0.0019,0.0092,170.0,21.0,1.0,200.0,250.0,14.0,0.0,0.0,0.0,0.0005,1.08,0.0005,0.0005,0.0005,0.0,0.0,0.0,,,,,-48.0,100.0
0.09,0.34,0.89,0.008,0.016,0.0396,0.0042,0.0096,450.0,30.0,2.0,200.0,760.0,2.0,0.17,8.2,0.94,0.02,0.0728602,0.00495088,0.000542376,0.005,0.0,1.0,1.0,660.0,,,,,