File: 4 - Dataset/regression_weld_data.csv
Carbon concentration (weight%),Silicon concentration (weight%),Manganese concentration (weight%),Sulphur concentration (weight%),Phosphorus concentration (weight%),Oxygen concentration (%),Nitrogen concentration (%),Current (A),Voltage (V),Heat input (kJ/mm),Interpass temperature (deg C),Post weld heat treatment temperature (deg C),Post weld heat treatment time (hours),Nickel concentration (weight%),Chromium concentration (weight%),Molybdenum concentration (weight%),Vanadium concentration (weight%),Copper concentration (weight%),Titanium concentration (%),Aluminium concentration (%),Boron concentration (%),Niobium concentration (%),AC or DC,Electrode positive or negative,Type of weld,Yield strength (MPa),Ultimate tensile strength (MPa),Elongation (%),Reduction of Area (%),Charpy temperature (deg C),Charpy impact toughness (J),Hardness (kg/mm2)
0.037,0.3,0.65,0.008,0.012,0.0422,0.0083,170.0,21.0,1.0,200.0,250.0,14.0,0.0,1.17437,0.172986,1.11015,0.190747,0.00665847,0.001399,0.000718125,0.00775959,0.0,1.0,0.0,392.0,466.0,31.9,80.6,,,
0.044,0.35,1.43,0.007,0.014,0.0422,0.0083,170.0,21.0,1.0,200.0,250.0,14.0,0.0,1.17437,0.357792,0.407584,0.404843,0.0101312,0.0191927,0.00101916,0.00775959,0.0,1.0,0.0,468.0,551.0,29.4,78.7,,,
0.039,0.32,0.66,0.006,0.011,0.0422,0.0083,170.0,21.0,1.0,200.0,250.0,14.0,0.53,1.76004,0.543296,0.433906,0.169605,0.0058422,0.00879189,0.00114943,0.0258082,0.0,1.0,0.0,411.0,484.0,32.6,79.3,,,
0.051,0.32,1.4,0.007,0.014,0.0422,0.0083,170.0,21.0,1.0,200.0,580.0,2.0,0.47,1.17437,0.449648,0.01,0.526466,0.0118792,0.0405373,0.00087086,0.00775959,0.0,1.0,0.0,450.0,536.0,28.2,78.8,,,
0.038,0.31,0.63,0.007,0.012,0.0422,0.0083,170.0,21.0,1.0,200.0,580.0,2.0,1.09,2.35211,1.52033,0.01,0.198802,0.0191834,0.007,0.00153894,0.0115863,0.0,1.0,0.0,411.0,493.0,33.6,79.7,-40.0,100.0,
0.049,0.35,1.37,0.007,0.013,0.0422,0.0083,170.0,21.0,1.0,200.0,580.0,2.0,1.06,5.28157,0.860482,1.08329,0.105,0.0161035,0.0172387,0.00203827,0.00708537,0.0,1.0,0.0,470.0,557.0,30.2,76.0,-20.0,100.0,
0.041,0.3,0.62,0.007,0.01,0.0422,0.0083,170.0,21.0,1.0,200.0,580.0,2.0,2.38,0.997734,0.301261,0.101366,0.358822,0.007,0.007,0.000403233,0.00775959,0.0,1.0,0.0,431.0,518.0,32.2,76.9,-41.0,100.0,
0.049,0.32,1.41,0.007,0.014,0.0422,0.0083,170.0,21.0,1.0,200.0,580.0,2.0,2.32,2.73343,0.43,0.01,0.59049,0.0226915,0.041262,0.00208889,0.00484339,0.0,1.0,0.0,530.0,615.0,26.6,73.0,-20.0,100.0,
0.037,0.3,0.65,0.009,0.011,0.0422,0.0083,170.0,21.0,1.0,200.0,580.0,2.0,3.5,6.51191,1.11829,0.661369,0.226997,0.0202899,0.007,0.00210243,0.031045,0.0,1.0,0.0,482.0,560.0,31.4,48.8,-63.0,100.0,
0.048,0.33,1.4,0.007,0.013,0.0422,0.0083,170.0,21.0,1.0,200.0,580.0,2.0,3.47,5.08708,0.662792,0.01,0.120899,0.00696466,0.007,0.000556599,0.03993,0.0,1.0,0.0,584.0,677.0,26.6,70.8,56.0,100.0,
0.075,0.36,1.48,0.007,0.006,0.039,0.0083,170.0,21.0,1.0,150.0,0.0,0.0,0.908549,0.896692,0.0263839,0.01,0.11,0.004,0.0296947,0.00122369,0.0302104,0.0,1.0,0.0,502.0,578.0,27.6,77.0,,,
0.068,0.32,1.49,0.006,0.006,0.039,0.0083,170.0,21.0,1.0,150.0,0.0,0.0,0.17443,1.17437,0.524783,0.01,0.66,0.004,0.0234796,0.00108315,0.00775959,0.0,1.0,0.0,513.0,593.0,28.6,77.0,,,
0.074,0.29,1.49,0.006,0.013,0.0471,0.0072,170.0,21.0,1.0,200.0,0.0,0.0,0.17443,1.24675,0.00862031,0.01,0.352633,0.0005,0.0006,0.000573291,0.00886874,0.0,1.0,0.0,,,,,-19.0,100.0,
0.076,0.34,1.36,0.005,0.011,0.0476,0.0057,170.0,21.0,1.0,200.0,0.0,0.0,1.13204,5.16949,0.823008,0.440092,0.264149,0.0005,0.015,0.000418008,0.0372799,0.0,1.0,0.0,,,,,-20.0,100.0,
0.078,0.44,1.4,0.004,0.011,0.0436,0.0044,170.0,21.0,1.0,200.0,0.0,0.0,0.17443,0.512607,0.43,0.01,1.28714,0.0005,0.042,0.00125517,0.00775959,0.0,1.0,0.0,,,,,-30.0,100.0,
0.069,0.3,1.36,0.007,0.009,0.0432,0.0068,170.0,21.0,1.0,200.0,0.0,0.0,0.10027,2.92021,0.343234,0.01,0.105,0.0037,0.0005,0.000486951,0.00775959,0.0,1.0,0.0,,,,,-72.0,100.0,
0.076,0.37,1.36,0.005,0.009,0.0422,0.0053,170.0,21.0,1.0,200.0,0.0,0.0,1.21997,1.62335,0.258143,0.01,0.129064,0.0036,0.019,0.00197643,0.0124811,0.0,1.0,0.0,,,,,-58.0,100.0,
0.076,0.51,1.3,0.005,0.008,0.0423,0.0048,170.0,21.0,1.0,200.0,0.0,0.0,0.633092,4.6275,0.056141,0.0717351,0.268152,0.0043,0.049,0.00208101,0.0158787,0.0,1.0,0.0,,,,,-55.0,100.0,
0.074,0.32,1.5,0.006,0.006,0.0375,0.0089,170.0,21.0,1.0,200.0,0.0,0.0,0.17443,3.54507,1.03464,0.642756,0.105,0.0099,0.0008,0.000646958,0.0126066,0.0,1.0,0.0,,,,,-52.0,100.0,
0.071,0.39,1.36,0.005,0.009,0.0381,0.0052,170.0,21.0,1.0,200.0,0.0,0.0,0.528225,1.17437,0.226541,0.185643,0.531287,0.0092,0.016,0.00160402,0.00775959,0.0,1.0,0.0,,,,,-56.0,100.0,
0.069,0.51,1.39,0.004,0.008,0.0379,0.0041,170.0,21.0,1.0,200.0,0.0,0.0,1.97298,0.264125,0.43,0.704218,0.261738,0.0069,0.048,0.00128298,0.00428476,0.0,1.0,0.0,,,,,-54.0,100.0,
0.081,0.34,1.54,0.007,0.008,0.0312,0.008,170.0,21.0,1.0,200.0,0.0,0.0,0.156687,6.92013,1.4096,0.326639,0.20309,0.018,0.0003,0.0010312,0.0273768,0.0,1.0,0.0,,,,,-52.0,100.0,
0.072,0.34,1.33,0.006,0.008,0.0427,0.0057,170.0,21.0,1.0,200.0,0.0,0.0,0.316163,1.17437,0.398472,0.207326,0.556245,0.019,0.015,0.00219272,0.00775959,0.0,1.0,0.0,,,,,-52.0,100.0,
0.066,0.46,1.41,0.004,0.009,0.0407,0.0049,170.0,21.0,1.0,200.0,0.0,0.0,0.223711,3.06212,0.757486,0.354064,0.23382,0.024,0.044,0.00366006,0.0238788,0.0,1.0,0.0,,,,,-42.0,100.0,
0.069,0.43,1.49,0.004,0.005,0.0294,0.0077,170.0,21.0,1.0,200.0,0.0,0.0,0.183643,1.17437,0.757205,0.01,0.221025,0.046,0.0001,0.00218685,0.0156998,0.0,1.0,0.0,,,,,-60.0,100.0,
0.071,0.42,1.39,0.007,0.005,0.0446,0.0065,170.0,21.0,1.0,200.0,0.0,0.0,1.046,2.13944,0.45954,0.01,0.105,0.042,0.015,0.0026868,0.00775959,0.0,1.0,0.0,,,,,-56.0,100.0,
0.069,0.54,1.41,0.005,0.005,0.0439,0.0058,170.0,21.0,1.0,200.0,0.0,0.0,0.17443,1.17437,0.648507,0.51647,0.0957656,0.046,0.042,0.00313503,0.00775959,0.0,1.0,0.0,,,,,-43.0,100.0,
0.09,0.18,0.98,0.008,0.012,0.0642,0.046,180.0,34.0,1.0,175.0,750.0,8.0,0.313012,8.9,1.0,0.22,0.105,0.0017028,0.00653729,0.0003,0.052,0.0,1.0,0.0,542.0,697.0,18.8,65.3,12.0,100.0,
0.091,0.2,1.04,0.007,0.013,0.0591,0.048,180.0,34.0,1.0,175.0,750.0,8.0,0.398338,9.02,1.01,0.24,0.094773,0.0229485,0.0242577,0.0032,0.062,0.0,1.0,0.0,642.0,778.0,16.8,59.8,53.0,100.0,
0.094,0.17,1.0,0.008,0.012,0.0636,0.016,180.0,34.0,1.0,175.0,750.0,8.0,0.626973,8.99,1.03,0.21,0.327263,0.007,0.007,0.0003,0.052,0.0,1.0,0.0,558.0,705.0,20.8,64.5,31.0,100.0,
0.086,0.2,1.04,0.008,0.013,0.0567,0.016,180.0,34.0,1.0,175.0,750.0,8.0,0.696049,8.98,1.01,0.22,0.105,0.0239831,0.0217378,0.0036,0.056,0.0,1.0,0.0,609.0,743.0,16.9,61.9,38.0,100.0,
0.037,0.3,0.65,0.008,0.012,0.0422,0.0083,170.0,21.0,1.0,200.0,0.0,0.0,0.17443,0.0,0.674756,0.88635,0.105,0.0253515,0.0011615,0.00153594,0.0107249,0.0,1.0,0.0,,,,,-26.0,100.0,
0.044,0.35,1.43,0.007,0.014,0.0422,0.0083,170.0,21.0,1.0,200.0,0.0,0.0,0.76531,0.0,0.251576,0.01,0.294638,0.0158289,0.00684917,0.00121944,0.013708,0.0,1.0,0.0,,,,,-52.0,100.0,
0.041,0.32,1.01,0.008,0.013,0.0422,0.0083,170.0,21.0,1.0,200.0,250.0,14.0,1.37986,0.24,0.43,0.208657,0.626962,0.00254052,0.0250265,0.000536774,0.0131899,0.0,1.0,0.0,463.0,532.0,30.0,77.8,,,
0.048,0.33,1.85,0.007,0.013,0.0422,0.0083,170.0,21.0,1.0,200.0,580.0,2.0,0.6379,0.26,0.218298,0.123605,0.254251,0.0189091,0.0434165,0.00250827,0.0272522,0.0,1.0,0.0,535.0,620.0,27.0,74.0,,,
0.043,0.31,0.95,0.007,0.01,0.0422,0.0083,170.0,21.0,1.0,200.0,580.0,2.0,1.02295,0.53,0.800991,0.01,0.441292,0.00848006,0.007,0.000677357,0.014019,0.0,1.0,0.0,460.0,536.0,28.8,77.0,-35.0,100.0,
0.051,0.33,1.83,0.006,0.013,0.0422,0.0083,170.0,21.0,1.0,200.0,580.0,2.0,0.369696,0.52,0.468715,0.01,0.18778,0.0266238,0.0192931,0.00130192,0.0021908,0.0,1.0,0.0,570.0,650.0,24.0,68.7,-2.0,100.0,
0.045,0.32,0.97,0.007,0.012,0.0422,0.0083,170.0,21.0,1.0,200.0,580.0,2.0,0.17443,1.04,0.562518,0.01,0.478622,0.0162355,0.00660282,0.00111711,0.00775959,0.0,1.0,0.0,471.0,568.0,26.2,77.0,-31.0,100.0,
0.052,0.33,1.81,0.007,0.013,0.0422,0.0083,170.0,21.0,1.0,200.0,580.0,2.0,1.42046,1.1,0.560592,0.173768,0.0237974,0.0142192,0.00409546,0.000522847,0.00775959,0.0,1.0,0.0,592.0,671.0,22.8,72.0,28.0,100.0,
0.046,0.3,0.93,0.008,0.012,0.0422,0.0083,170.0,21.0,1.0,200.0,580.0,2.0,1.24234,2.38,0.171017,0.422171,0.306755,0.0083351,0.0270196,0.0010068,0.0344623,0.0,1.0,0.0,605.0,683.0,19.8,71.9,-3.0,100.0,
0.054,0.33,1.72,0.007,0.014,0.0422,0.0083,170.0,21.0,1.0,200.0,580.0,2.0,0.17443,2.36,0.697259,0.264416,0.296067,0.007,0.0178065,0.000573591,0.0113041,0.0,1.0,0.0,697.0,757.0,19.6,69.7,,,
0.069,0.3,1.36,0.007,0.009,0.0432,0.0067,170.0,21.0,1.0,200.0,580.0,2.0,0.17443,0.646639,0.858807,0.0005,0.142242,0.0037,0.0005,0.0005,0.0005,0.0,1.0,0.0,393.0,500.0,31.8,77.0,-78.0,100.0,
0.078,0.32,1.39,0.007,0.009,0.0436,0.0066,170.0,21.0,1.0,200.0,0.0,0.0,1.0834,2.94954,0.113527,0.0005,0.134582,0.0042,0.0044,0.0005,0.0005,0.0,1.0,0.0,,,,,-88.0,28.0,
0.08,0.33,1.41,0.006,0.009,0.0432,0.0061,170.0,21.0,1.0,200.0,0.0,0.0,0.505372,1.17437,0.130931,0.0005,0.0484684,0.0043,0.0078,0.0005,0.0005,0.0,1.0,0.0,,,,,-55.0,100.0,
0.08,0.37,1.42,0.006,0.009,0.0439,0.0054,170.0,21.0,1.0,200.0,580.0,2.0,1.94046,1.96972,0.20881,0.0005,0.457263,0.0043,0.012,0.0005,0.0005,0.0,1.0,0.0,397.0,518.0,31.0,79.8,-91.0,28.0,
0.076,0.37,1.36,0.005,0.009,0.0422,0.0054,170.0,21.0,1.0,200.0,580.0,2.0,0.726989,1.17437,0.0865015,0.0005,0.677512,0.0036,0.019,0.0005,0.0005,0.0,1.0,0.0,403.0,519.0,29.1,78.9,-74.0,100.0,
0.076,0.51,1.3,0.005,0.008,0.0423,0.005,170.0,21.0,1.0,200.0,250.0,14.0,0.651103,1.17437,0.43,0.0005,0.167624,0.0043,0.049,0.0005,0.0005,0.0,1.0,0.0,485.0,560.0,25.2,78.9,,,
0.079,0.57,1.32,0.004,0.008,0.0422,0.0048,170.0,21.0,1.0,200.0,0.0,0.0,1.24042,1.17437,0.43,0.0005,0.105,0.0038,0.061,0.0005,0.0005,0.0,1.0,0.0,,,,,-74.0,28.0,
0.073,0.35,0.64,0.005,0.004,0.0428,0.0077,170.0,21.0,1.0,200.0,580.0,2.0,0.328744,1.17437,0.265497,0.0003,0.391685,0.0038,0.0005,0.0005,0.0005,0.0,1.0,0.0,329.0,447.0,36.4,80.5,-54.0,100.0,
0.071,0.4,0.64,0.008,0.006,0.0411,0.0088,170.0,21.0,1.0,200.0,580.0,2.0,0.809478,2.97832,0.597864,0.0435,0.271721,0.0036,0.0005,0.0005,0.0005,0.0,1.0,0.0,446.0,526.0,,76.0,-30.0,100.0,
0.072,0.36,0.64,0.008,0.006,0.0436,0.0084,170.0,21.0,1.0,200.0,580.0,2.0,0.17443,3.13301,1.07352,0.0815,0.0886073,0.0034,0.0005,0.0005,0.0005,0.0,1.0,0.0,483.0,576.0,25.2,76.0,-22.0,100.0,
0.076,0.34,1.01,0.007,0.007,0.0426,0.0075,170.0,21.0,1.0,200.0,580.0,2.0,0.681002,1.17437,0.459224,0.0215,0.49119,0.0037,0.0005,0.0005,0.0005,0.0,1.0,0.0,434.0,515.0,29.8,78.9,-67.0,100.0,
0.076,0.33,1.04,0.007,0.006,0.0429,0.007,170.0,21.0,1.0,200.0,580.0,2.0,1.78699,1.17437,0.593172,0.061,0.242757,0.0031,0.0005,0.0005,0.0005,0.0,1.0,0.0,493.0,569.0,27.0,77.0,-44.0,100.0,
0.077,0.31,1.33,0.007,0.005,0.0419,0.008,170.0,21.0,1.0,200.0,580.0,2.0,0.95935,1.17437,0.43,0.0004,0.0342358,0.0038,0.0005,0.0005,0.0006,0.0,1.0,0.0,372.0,497.0,31.4,76.4,-81.0,100.0,
0.077,0.26,1.36,0.007,0.007,0.041,0.0079,170.0,21.0,1.0,200.0,580.0,2.0,1.09098,1.17437,0.43,0.0425,0.341794,0.0029,0.0005,0.0005,0.0005,0.0,1.0,0.0,526.0,594.0,26.0,76.0,-62.0,100.0,
0.076,0.26,1.36,0.007,0.006,0.0407,0.0083,170.0,21.0,1.0,200.0,580.0,2.0,0.798358,7.19793,0.627477,0.1005,0.105,0.0029,0.0005,0.0005,0.0005,0.0,1.0,0.0,574.0,642.0,22.6,73.0,-36.0,100.0,
0.077,0.26,1.73,0.007,0.008,0.0423,0.0072,170.0,21.0,1.0,200.0,580.0,2.0,1.03891,1.17437,0.143083,0.0235,0.587736,0.0027,0.0005,0.0005,0.0005,0.0,1.0,0.0,523.0,602.0,25.6,75.0,-59.0,100.0,
0.076,0.25,1.72,0.005,0.008,0.0405,0.0086,170.0,21.0,1.0,200.0,580.0,2.0,0.633658,1.06425,0.567812,0.0605,0.0940228,0.0025,0.0005,0.0005,0.0005,0.0,1.0,0.0,521.0,597.0,24.4,74.0,-44.0,100.0,
0.073,0.35,0.64,0.005,0.004,0.0428,0.0077,170.0,21.0,1.0,200.0,580.0,2.0,1.56609,1.17437,0.0760489,0.0003,0.105,0.0038,0.0005,0.0005,0.0005,0.0,1.0,0.0,329.0,447.0,36.4,80.5,-55.0,100.0,
0.075,0.33,0.62,0.007,0.005,0.0429,0.0085,170.0,21.0,1.0,200.0,580.0,2.0,0.141771,3.27391,0.352058,0.0003,0.357757,0.0042,0.0005,0.0005,0.022,0.0,1.0,0.0,451.0,539.0,24.4,78.0,-27.0,100.0,
0.074,0.33,0.64,0.008,0.006,0.046,0.011,170.0,21.0,1.0,200.0,580.0,2.0,0.262208,9.60339,1.56027,0.0003,0.337825,0.0039,0.0005,0.0005,0.088,0.0,1.0,0.0,544.0,621.0,22.6,71.9,18.0,100.0,
0.078,0.35,1.02,0.007,0.005,0.0368,0.0083,170.0,21.0,1.0,200.0,580.0,2.0,0.17443,0.563925,0.285232,0.0004,0.105,0.0036,0.0005,0.0005,0.012,0.0,1.0,0.0,447.0,540.0,30.4,77.0,-55.0,100.0,
0.074,0.33,0.99,0.008,0.006,0.0393,0.0088,170.0,21.0,1.0,200.0,580.0,2.0,0.17443,6.7085,0.804438,0.0004,0.105,0.0037,0.0005,0.0005,0.0465,0.0,1.0,0.0,540.0,616.0,22.4,75.0,-20.0,100.0,
0.077,0.31,1.33,0.007,0.005,0.0419,0.008,170.0,21.0,1.0,200.0,580.0,2.0,0.164741,2.80036,0.747496,0.0004,0.0679388,0.0038,0.0005,0.0005,0.0006,0.0,1.0,0.0,372.0,497.0,31.4,76.4,-81.0,100.0,
0.076,0.3,1.36,0.008,0.006,0.037,0.0084,170.0,21.0,1.0,200.0,580.0,2.0,0.17443,1.17437,0.43,0.0004,0.311191,0.0033,0.0005,0.0005,0.0235,0.0,1.0,0.0,539.0,607.0,25.0,76.0,-41.0,100.0,
0.076,0.3,1.36,0.006,0.007,0.0432,0.0091,170.0,21.0,1.0,200.0,580.0,2.0,0.17443,12.0931,1.61495,0.0005,0.18321,0.0033,0.0005,0.0005,0.094,0.0,1.0,0.0,614.0,686.0,19.0,70.8,7.0,100.0,
0.077,0.32,1.77,0.007,0.006,0.0418,0.0089,170.0,21.0,1.0,200.0,580.0,2.0,0.911603,1.18507,0.504329,0.0004,0.0732621,0.0031,0.0005,0.0005,0.0125,0.0,1.0,0.0,524.0,605.0,24.4,74.0,-61.0,100.0,
0.077,0.29,1.77,0.008,0.009,0.0432,0.0097,170.0,21.0,1.0,200.0,580.0,2.0,0.363608,4.62343,0.361756,0.0004,0.451523,0.0031,0.0005,0.0005,0.045,0.0,1.0,0.0,577.0,661.0,21.6,71.9,-15.0,100.0,
0.06,0.25,1.19,0.008,0.007,0.0353,0.011,180.0,34.0,2.0,200.0,250.0,14.0,0.17443,6.02553,0.364627,0.01,0.257505,0.0087581,0.000658608,0.00229194,0.0351015,1.0,0.0,0.0,443.0,508.0,30.4,82.4,,,
0.059,0.29,1.49,0.008,0.017,0.0305,0.011,180.0,34.0,1.0,200.0,250.0,14.0,0.890294,7.48521,0.622083,0.01,0.105,0.0121078,0.00716768,0.00110884,0.0473181,0.0,1.0,0.0,442.0,524.0,31.6,80.6,,,
0.043,0.3,0.69,0.006,0.007,0.0422,0.0083,170.0,21.0,1.0,200.0,580.0,2.0,0.17443,1.17437,0.037608,0.0432864,0.105,0.007,0.007,0.000737209,0.0100776,0.0,1.0,0.0,373.0,448.0,34.4,83.0,-50.0,53.0,
0.042,0.31,0.98,0.006,0.007,0.0422,0.0083,170.0,21.0,1.0,200.0,580.0,2.0,0.17443,0.710313,0.851067,0.01,0.23527,0.00594819,0.007,0.000737209,0.00247097,0.0,1.0,0.0,392.0,476.0,34.4,80.6,-50.0,74.0,
0.045,0.31,1.39,0.005,0.007,0.0422,0.0083,170.0,21.0,1.0,200.0,580.0,2.0,0.14695,1.17437,0.148706,0.01,0.639618,0.0157427,0.0317955,0.00166839,0.00775959,0.0,1.0,0.0,414.0,502.0,31.0,80.6,-50.0,129.0,
0.045,0.29,1.83,0.005,0.008,0.0422,0.0083,170.0,21.0,1.0,200.0,580.0,2.0,2.14702,4.84828,0.307937,0.01,0.486845,0.0101469,0.0141091,0.00193937,0.0432859,0.0,1.0,0.0,444.0,525.0,29.8,79.9,-50.0,117.0,
0.058,0.33,0.63,0.007,0.007,0.0422,0.0083,170.0,21.0,1.0,200.0,580.0,2.0,1.60201,5.19369,0.864104,0.01,0.125989,0.007,0.007,0.000249943,0.0421172,0.0,1.0,0.0,386.0,465.0,33.4,78.8,-40.0,78.0,
0.065,0.34,0.97,0.007,0.008,0.0422,0.0083,170.0,21.0,1.0,200.0,580.0,2.0,0.17443,3.90998,0.660258,0.474944,0.105,0.0236691,0.0249634,0.00174413,0.0208966,0.0,1.0,0.0,418.0,500.0,35.0,80.6,-40.0,155.0,
0.066,0.35,1.36,0.007,0.008,0.0422,0.0083,170.0,21.0,1.0,200.0,580.0,2.0,2.34029,1.92691,0.455408,0.01,0.42333,0.0220885,0.038723,0.0016331,0.0347435,0.0,1.0,0.0,455.0,540.0,31.2,77.9,-40.0,165.0,
0.074,0.36,1.8,0.008,0.008,0.0422,0.0083,170.0,21.0,1.0,200.0,580.0,2.0,0.694392,5.12049,0.35803,0.01,0.0368108,0.000738596,0.00214642,0.000320774,0.0166493,0.0,1.0,0.0,504.0,594.0,26.2,75.0,-40.0,121.0,
0.089,0.35,0.68,0.008,0.008,0.0422,0.0083,170.0,21.0,1.0,200.0,580.0,2.0,0.17443,2.3165,0.370121,0.299572,0.512673,0.00897129,0.00522609,0.000737209,0.010922,0.0,1.0,0.0,394.0,499.0,34.2,78.8,-40.0,95.0,
0.095,0.36,1.05,0.007,0.008,0.0422,0.0083,170.0,21.0,1.0,200.0,580.0,2.0,0.17443,6.85928,1.06901,0.264081,0.288323,0.0196134,0.014854,0.000808058,0.0324372,0.0,1.0,0.0,435.0,546.0,34.0,77.0,-40.0,110.0,
0.088,0.34,1.33,0.008,0.007,0.0422,0.0083,170.0,21.0,1.0,200.0,580.0,2.0,1.10606,1.17437,0.43,0.01,0.162479,0.007,0.00128008,0.000737209,0.00775959,0.0,1.0,0.0,461.0,568.0,28.6,77.9,-40.0,155.0,
0.089,0.33,1.69,0.007,0.008,0.0422,0.0083,170.0,21.0,1.0,200.0,580.0,2.0,0.17443,6.11319,0.972436,0.168686,0.306657,0.00735694,0.00671825,0.00109804,0.0561304,0.0,1.0,0.0,490.0,597.0,30.2,75.0,-40.0,114.0,
0.151,0.36,0.63,0.008,0.008,0.0422,0.0083,170.0,21.0,1.0,200.0,580.0,2.0,0.17443,1.17437,0.43,0.617845,0.0166206,0.00383139,0.007,0.00106998,0.0142288,0.0,1.0,0.0,449.0,533.0,30.6,76.0,-20.0,131.0,
0.147,0.36,1.02,0.007,0.007,0.0422,0.0083,170.0,21.0,1.0,200.0,580.0,2.0,0.17443,1.17437,0.23084,0.756931,0.105,0.00543926,0.0103258,0.000133544,0.00775959,0.0,1.0,0.0,482.0,576.0,29.4,76.9,-20.0,150.0,
0.147,0.35,1.38,0.007,0.007,0.0422,0.0083,170.0,21.0,1.0,200.0,580.0,2.0,0.0643611,2.41409,0.723224,0.01,0.0518345,0.0198803,0.015009,0.00155013,0.000232341,0.0,1.0,0.0,513.0,623.0,27.4,72.9,-20.0,150.0,
0.145,0.35,1.76,0.006,0.007,0.0422,0.0083,170.0,21.0,1.0,200.0,580.0,2.0,0.17443,0.422478,1.04091,0.172274,0.349227,0.0217832,0.007,0.00229389,0.00835224,0.0,1.0,0.0,567.0,679.0,24.0,69.8,-20.0,117.0,
0.073,0.34,1.49,0.004,0.007,0.0396,0.0084,170.0,21.0,1.0,200.0,0.0,0.0,0.17443,0.739307,0.274272,0.778997,0.688999,0.0016,0.000456598,0.000767856,0.00383675,0.0,1.0,4.0,,,,,-85.0,28.0,
0.061,0.33,1.36,0.005,0.006,0.0419,0.0081,170.0,21.0,1.0,200.0,0.0,0.0,0.17443,1.17437,0.43,0.150647,0.105,0.0028,0.00770929,0.000831936,0.00775959,0.0,1.0,4.0,,,,,-86.0,28.0,
0.068,0.32,1.38,0.004,0.005,0.0376,0.0074,170.0,21.0,1.0,200.0,0.0,0.0,1.4796,2.19709,0.63084,0.468996,0.318282,0.0077,0.00869047,0.00111606,0.0106151,0.0,1.0,4.0,,,,,-68.0,28.0,
0.065,0.39,1.53,0.005,0.006,0.0351,0.0093,170.0,21.0,1.0,200.0,0.0,0.0,0.17443,2.92381,0.969015,0.01,0.8059,0.014,0.0164394,0.00263236,0.0197242,0.0,1.0,4.0,,,,,-64.0,28.0,
0.075,0.29,1.75,0.006,0.005,0.0272,0.0096,170.0,21.0,1.0,200.0,0.0,0.0,1.64997,1.10907,0.174114,0.01,0.0308578,0.0255,0.00664732,0.00130084,0.0219691,0.0,1.0,4.0,,,,,-80.0,28.0,
0.074,0.35,0.65,0.005,0.004,0.0426,0.0073,170.0,21.0,1.0,200.0,0.0,0.0,0.964197,1.42485,0.291378,0.0005,0.515109,0.0036,0.0005,0.0005,0.0005,0.0,1.0,0.0,,,,,-45.0,100.0,
0.076,0.38,0.67,0.009,0.007,0.0362,0.007,170.0,21.0,1.0,200.0,0.0,0.0,0.644508,1.17437,0.177434,0.0005,0.29884,0.016,0.0005,0.0005,0.0005,0.0,1.0,0.0,,,,,-36.0,100.0,
0.077,0.3,1.0,0.008,0.007,0.0464,0.0083,170.0,21.0,1.0,200.0,0.0,0.0,0.551919,0.360624,0.43,0.0005,0.158855,0.0007,0.0005,0.0005,0.0005,0.0,1.0,0.0,,,,,-56.0,100.0,
0.075,0.31,1.03,0.008,0.007,0.0394,0.0079,170.0,21.0,1.0,200.0,0.0,0.0,0.930038,1.17437,0.236699,0.0005,0.30788,0.0092,0.0005,0.0005,0.0005,0.0,1.0,0.0,,,,,-53.0,100.0,
0.078,0.43,1.1,0.007,0.005,0.0329,0.0073,170.0,21.0,1.0,200.0,0.0,0.0,0.347472,1.17437,0.449103,0.0005,0.916197,0.019,0.0005,0.0005,0.0005,0.0,1.0,0.0,,,,,-50.0,100.0,
0.077,0.32,1.33,0.007,0.005,0.0422,0.0083,170.0,21.0,1.0,200.0,0.0,0.0,0.00463966,1.17437,0.43,0.0005,0.105,0.0036,0.0005,0.0005,0.0005,0.0,1.0,0.0,,,,,-68.0,100.0,
0.079,0.33,1.35,0.008,0.007,0.0375,0.0078,170.0,21.0,1.0,200.0,0.0,0.0,0.649969,1.17437,0.172697,0.0005,0.105,0.014,0.0005,0.0005,0.0005,0.0,1.0,0.0,,,,,-43.0,100.0,
0.077,0.28,1.79,0.007,0.006,0.0439,0.0082,170.0,21.0,1.0,200.0,0.0,0.0,1.26413,0.227084,0.405362,0.0005,0.34093,0.0007,0.0005,0.0005,0.0005,0.0,1.0,0.0,,,,,-5.0,100.0,
0.077,0.29,1.76,0.007,0.007,0.0396,0.0081,170.0,21.0,1.0,200.0,0.0,0.0,0.942611,0.126841,0.297759,0.0005,0.105,0.0105,0.0005,0.0005,0.0005,0.0,1.0,0.0,,,,,-53.0,100.0,
0.079,0.37,1.82,0.006,0.007,0.0324,0.0081,170.0,21.0,1.0,200.0,0.0,0.0,0.17443,1.17437,0.642225,0.0005,0.749646,0.0255,0.0005,0.0005,0.0005,0.0,1.0,0.0,,,,,-53.0,100.0,
0.072,0.38,1.5,0.006,0.01,0.0291,0.0077,170.0,21.0,1.0,200.0,0.0,0.0,0.578502,1.84691,1.12474,0.01,0.268086,0.026,0.007,0.00137966,0.0126341,0.0,1.0,0.0,509.0,578.0,26.4,78.9,,,
0.07,0.29,1.5,0.008,0.009,0.0341,0.0164,170.0,21.0,1.0,200.0,0.0,0.0,2.27239,1.17437,0.43,0.01,0.638918,0.012,0.007,0.000559865,0.00775959,0.0,1.0,0.0,513.0,573.0,25.2,76.0,,,
0.073,0.29,1.53,0.009,0.007,0.0419,0.0243,170.0,21.0,1.0,200.0,0.0,0.0,1.39388,6.49849,0.880891,0.01,0.0325393,0.0046,0.0225637,0.000684377,0.0512608,0.0,1.0,0.0,538.0,591.0,24.9,74.5,,,
0.035,0.3,0.66,0.006,0.013,0.049,0.007,170.0,21.0,1.0,150.0,500.0,2.0,0.684471,1.17437,0.677276,0.665304,0.105,0.00450605,0.007,0.000267903,0.00775959,0.0,1.0,0.0,370.0,456.0,35.2,80.6,-32.0,100.0,
0.051,0.34,1.82,0.006,0.017,0.039,0.009,170.0,21.0,1.0,150.0,500.0,2.0,1.14724,0.943573,0.174111,0.01,0.280754,0.0120287,0.0192228,0.00154501,0.00775959,0.0,1.0,0.0,479.0,576.0,27.4,76.9,-36.0,100.0,
0.1,0.34,1.42,0.009,0.028,0.0345,0.0087,170.0,24.0,2.1,107.0,620.0,1.0,1.92,0.05,0.35,0.01,0.05,0.0147313,0.0081942,0.00176767,0.00825995,0.0,1.0,0.0,765.0,858.0,20.6,,-14.0,50.0,
0.04,0.24,0.82,0.009,0.01,0.03,0.0083,165.0,25.0,1.0,200.0,0.0,0.0,2.2,1.17437,0.43,0.01,0.62,0.015,0.0184258,0.00177721,0.00775959,0.0,2.0,0.0,525.0,623.0,21.0,65.0,,,
0.101,0.17,1.02,0.008,0.012,0.0664,0.0494,180.0,34.0,1.0,175.0,750.0,8.0,1.92,9.12,1.0,0.19,0.92522,0.0185588,0.0310354,0.00192519,0.047,0.0,1.0,0.0,672.0,866.0,13.6,56.8,,,
0.096,0.2,0.99,0.007,0.015,0.0669,0.0526,180.0,34.0,1.0,175.0,750.0,8.0,0.0,9.25,0.91,0.19,0.111029,0.0351896,0.0273796,0.00335034,0.053,0.0,1.0,0.0,515.0,698.0,18.9,59.0,,,
0.05,0.46,0.96,0.01,0.017,0.0443,0.0084,170.0,21.0,1.8,100.0,620.0,1.0,0.03,1.17437,0.01,0.01,0.02,0.0134167,0.007,0.000897174,0.0114117,0.0,1.0,0.0,416.0,507.0,,,,,
0.06,0.44,1.6,0.01,0.018,0.0395,0.0102,170.0,21.0,1.8,100.0,620.0,1.0,0.03,0.360232,0.01,0.763951,0.02,0.00534855,0.0178551,0.000737209,0.00775959,0.0,1.0,0.0,494.0,556.0,,,,,
0.06,0.42,2.0,0.01,0.02,0.0371,0.0117,170.0,21.0,1.8,100.0,620.0,1.0,0.02,1.79724,0.01,0.473368,0.02,0.007,0.007,0.000737209,0.0133973,0.0,1.0,0.0,530.0,626.0,,,,,
0.03,0.45,0.78,0.013,0.01,0.0336,0.0095,180.0,23.0,1.0,250.0,0.0,0.0,0.395135,1.34363,0.812031,0.0024305,0.263171,0.014,0.009,0.000842994,0.009025,0.0,1.0,0.0,408.0,,,,-60.0,5.0,
0.032,0.45,1.27,0.008,0.01,0.0321,0.0094,180.0,23.0,1.0,250.0,0.0,0.0,0.395363,2.95585,0.646818,0.299502,0.185229,0.013,0.009,0.000357649,0.0218675,0.0,1.0,0.0,440.0,,,,-40.0,21.0,
0.031,0.42,1.71,0.004,0.01,0.0297,0.0109,180.0,23.0,1.0,250.0,0.0,0.0,0.17443,1.24221,0.725047,0.407722,0.417993,0.011,0.008,0.000561726,0.00775959,0.0,1.0,0.0,488.0,,,,-40.0,71.0,
0.032,0.45,2.05,0.002,0.01,0.032,0.0119,180.0,23.0,1.0,250.0,0.0,0.0,1.05395,4.70885,0.541714,0.732448,0.105,0.012,0.009,0.00084131,0.0528676,0.0,1.0,0.0,506.0,,,,-20.0,143.0,
0.059,0.34,0.77,0.01,0.01,0.0306,0.0066,180.0,23.0,1.0,250.0,0.0,0.0,0.311678,2.02894,0.270982,0.01,0.488276,0.011,0.007,0.00166797,0.0251532,0.0,1.0,0.0,400.0,,,,0.0,190.0,
0.059,0.33,1.09,0.008,0.01,0.031,0.0064,180.0,23.0,1.0,250.0,0.0,0.0,0.17443,2.06022,1.08399,0.01,0.105,0.01,0.007,0.000163555,0.00493341,0.0,1.0,0.0,430.0,,,,20.0,181.0,
0.065,0.33,1.83,0.003,0.01,0.0291,0.0076,180.0,23.0,1.0,250.0,0.0,0.0,0.734162,1.7257,0.434932,0.259356,0.207479,0.009,0.007,0.000543389,0.0214828,0.0,1.0,0.0,496.0,,,,-60.0,88.0,
0.09,0.41,0.78,0.013,0.01,0.0421,0.0036,180.0,23.0,1.0,250.0,0.0,0.0,0.174931,1.74387,0.488029,0.596742,0.105,0.014,0.003,0.000811327,0.00162693,0.0,1.0,0.0,430.0,,,,-40.0,95.0,
0.089,0.35,1.18,0.011,0.01,0.0404,0.0073,180.0,23.0,1.0,250.0,0.0,0.0,0.124748,9.45983,1.28093,0.417348,0.45322,0.012,0.008,0.00142261,0.0384253,0.0,1.0,0.0,450.0,,,,-20.0,162.0,
0.088,0.37,1.59,0.011,0.01,0.0491,0.0077,180.0,23.0,1.0,250.0,0.0,0.0,0.17443,0.798264,0.242829,0.01,0.105,0.012,0.003,0.00102547,0.0252043,0.0,1.0,0.0,478.0,,,,0.0,160.0,
0.098,0.39,2.25,0.008,0.014,0.033,0.0088,180.0,23.0,1.0,250.0,0.0,0.0,0.369426,0.772481,0.424762,0.01,0.105,0.013,0.003,0.000270146,0.00775959,0.0,1.0,0.0,541.0,,,,20.0,188.0,
0.12,0.44,1.35,0.01,0.014,0.0326,0.0055,180.0,23.0,1.0,250.0,0.0,0.0,0.0824771,1.17437,0.44948,0.01,0.105,0.015,0.003,0.00254547,0.00607718,0.0,1.0,0.0,516.0,,,,-60.0,100.0,
0.13,0.37,1.83,0.01,0.011,0.0318,0.0063,180.0,23.0,1.0,250.0,0.0,0.0,0.369953,5.45709,1.06657,0.01,0.105,0.013,0.003,0.00108015,0.0231785,0.0,1.0,0.0,526.0,,,,-40.0,114.0,
0.11,0.36,2.18,0.008,0.011,0.0342,0.0074,180.0,23.0,1.0,250.0,0.0,0.0,0.17443,2.13698,0.42623,0.01,0.105,0.012,0.003,0.000375097,0.00775959,0.0,1.0,0.0,617.0,,,,-20.0,107.0,
0.053,0.7,1.28,0.013,0.015,0.0622,0.0071,280.0,30.0,2.8,200.0,200.0,14.0,0.03,0.1,0.33158,0.015,0.346599,0.008,0.012,0.0002,0.002,0.0,1.0,2.0,,557.0,,,,,
0.062,0.37,1.1,0.015,0.014,0.0816,0.0069,280.0,30.0,2.8,200.0,200.0,14.0,0.02,0.08,0.326168,0.015,0.105,0.039,0.051,0.0028,0.001,0.0,1.0,2.0,,533.0,,,,,
0.07,0.46,1.19,0.01,0.018,0.0771,0.0046,280.0,30.0,2.8,200.0,200.0,14.0,0.01,0.1,0.997551,0.016,0.105,0.043,0.037,0.0019,0.007,0.0,1.0,2.0,,538.0,,,,,
0.072,0.35,1.05,0.005,0.007,0.0421,0.0073,170.0,21.0,1.0,200.0,0.0,0.0,0.994272,0.79,0.43,0.432549,0.0137961,0.0037,0.00774287,0.000684999,0.00227833,0.0,1.0,0.0,,,,,-63.0,100.0,
0.073,0.34,1.07,0.006,0.007,0.043,0.0089,170.0,21.0,1.0,200.0,0.0,0.0,0.17443,1.97,0.450526,0.708471,0.26272,0.004,0.0169147,0.000107518,0.00794304,0.0,1.0,0.0,,,,,-25.0,100.0,
0.05,0.29,0.72,0.007,0.009,0.025,0.008,680.0,34.0,2.0,200.0,0.0,0.0,0.77,0.52,0.23,0.0825586,1.19,0.007,0.021,0.0021,0.033,0.0,1.0,1.0,649.0,,,,,,257.0
0.05,0.24,0.97,0.005,0.012,0.023,0.008,670.0,34.0,4.6,200.0,0.0,0.0,0.53,0.4,0.26,0.01,0.82,0.009,0.014,0.0021,0.02,0.0,1.0,1.0,552.0,,,,,,213.0
0.05,0.39,1.1,0.006,0.013,0.022,0.007,660.0,34.0,2.0,200.0,0.0,0.0,1.87,0.53,0.37,0.20462,0.57,0.006,0.016,0.0012,0.021,0.0,1.0,1.0,592.0,,,,,,252.0
0.08,0.62,1.86,0.013,0.016,0.0174,0.0054,700.0,32.0,4.8,200.0,0.0,0.0,0.01,0.05,0.01,0.01,0.81,0.023,0.022,0.001,0.00832468,0.0,1.0,1.0,523.0,714.0,30.0,53.0,-5.0,35.0,
0.08,0.66,1.92,0.013,0.015,0.0148,0.0051,700.0,32.0,4.8,200.0,0.0,0.0,1.54,0.05,0.01,0.01,0.89,0.026,0.023,0.0013,0.00564751,0.0,1.0,1.0,542.0,829.0,26.0,51.0,33.0,35.0,
0.06,0.28,0.55,0.024,0.041,0.0422,0.007,170.0,21.0,2.2,250.0,0.0,0.0,1.26,0.0,0.0,0.01,0.02,0.007,0.0035,0.00052146,0.006,0.0,1.0,0.0,475.8,564.1,28.0,70.5,,,220.0
0.07,0.61,1.07,0.025,0.026,0.0422,0.0094,170.0,21.0,2.8,250.0,0.0,0.0,0.0,0.0,0.0,0.014,0.0,0.0064,0.007,0.000249427,0.004,0.0,1.0,0.0,479.7,583.7,24.0,71.5,,,189.0
0.08,0.35,0.65,0.01,0.021,0.0422,0.01,170.0,21.0,1.8,140.0,0.0,0.0,1.2,0.0,0.0,0.02,0.0,0.004,0.015,0.000412325,0.0,0.0,1.0,0.0,453.8,536.3,22.6,72.0,,,184.0
0.07,0.47,1.1,0.011,0.02,0.0422,0.019,170.0,21.0,1.9,140.0,0.0,0.0,0.0,0.0,0.0,0.01,0.0,0.02,0.0053,0.0003726,0.0,0.0,1.0,0.0,561.1,643.5,21.0,64.2,,,216.0
0.1,0.18,1.6,0.015,0.029,0.0422,0.011,170.0,21.0,2.4,200.0,0.0,0.0,0.0,0.0,0.5,0.004,0.14,0.002,0.008,0.000393867,0.01,0.0,1.0,1.0,630.8,725.9,24.5,68.5,,,265.0
0.15,0.32,1.2,0.017,0.025,0.0422,0.0099,170.0,21.0,1.6,200.0,0.0,0.0,0.0,0.0,0.0,0.0,0.0,0.0,0.009,0.000737209,0.0,0.0,1.0,1.0,536.6,627.8,30.0,68.0,,,202.0
0.064,0.27,1.44,0.021,0.024,0.059,0.0102,625.0,75.36,4.6,200.0,0.0,0.0,0.17443,2.00791,0.02,0.009,0.28,0.00591623,0.0172305,0.000312916,0.0189087,0.0,1.0,3.0,388.0,497.0,30.0,58.0,-60.0,10.0,
0.073,0.33,1.44,0.021,0.018,0.0563,0.0124,625.0,75.36,4.6,200.0,0.0,0.0,0.656759,5.40394,0.02,0.009,0.22,0.007,0.007,0.000540868,0.0271786,0.0,1.0,3.0,383.0,492.0,30.0,66.0,-30.0,99.0,
0.08,0.31,1.67,0.017,0.017,0.0502,0.0082,625.0,75.36,4.6,200.0,0.0,0.0,0.462022,2.58352,0.03,0.01,0.25,0.00131668,0.000238966,0.000737209,0.0106226,0.0,1.0,3.0,391.0,522.0,30.0,64.0,-60.0,39.0,
0.086,0.28,1.68,0.023,0.02,0.0487,0.0077,625.0,75.36,4.6,200.0,0.0,0.0,0.640928,0.163425,0.01,0.01,0.23,0.007,0.007,0.000737209,0.00775959,0.0,1.0,3.0,389.0,564.0,28.0,69.0,-20.0,79.0,
0.08,0.24,1.34,0.023,0.02,0.0575,0.0086,625.0,75.36,4.6,200.0,0.0,0.0,0.253695,1.17437,0.43,0.01,0.15,0.012994,0.00436918,0.000407466,0.00775959,0.0,1.0,3.0,554.0,554.0,30.0,67.0,-60.0,16.0,
0.095,0.45,1.88,0.02,0.022,0.0425,0.0084,625.0,75.36,4.6,200.0,0.0,0.0,0.49788,4.63481,0.44,0.01,0.26,0.007,0.00702239,0.000187978,0.0274637,0.0,1.0,3.0,747.0,747.0,25.0,62.0,-20.0,32.0,
0.082,0.18,0.75,0.014,0.02,0.0381,0.0109,625.0,72.24,4.4,200.0,0.0,0.0,0.376407,3.49156,0.02,0.005,0.22,0.0202536,0.0399675,0.00265339,0.00674523,0.0,1.0,3.0,349.0,456.0,36.0,72.0,-60.0,67.0,
0.07,0.16,1.17,0.013,0.02,0.0368,0.0108,625.0,72.24,4.4,200.0,0.0,0.0,1.54949,1.17437,0.02,0.01,0.26,0.007,0.0163798,0.000907469,0.025718,0.0,1.0,3.0,350.0,462.0,24.0,76.0,-20.0,168.0,
0.098,0.18,1.29,0.017,0.017,0.0337,0.0061,625.0,72.24,4.4,200.0,0.0,0.0,0.17443,1.17437,0.01,0.01,0.21,0.0156917,0.024631,2.81874e-05,0.00775959,0.0,1.0,3.0,359.0,503.0,28.0,72.0,-60.0,59.0,
0.1,0.24,1.91,0.016,0.016,0.0228,0.0074,625.0,72.24,4.4,200.0,0.0,0.0,1.31858,2.4867,0.02,0.01,0.05,0.0051381,0.0099568,0.000323964,0.0186102,0.0,1.0,3.0,376.0,553.0,33.0,70.0,-20.0,91.0,
0.12,0.27,1.46,0.014,0.026,0.0365,0.0077,625.0,72.24,4.4,200.0,0.0,0.0,1.37471,1.17437,0.48,0.01,0.3,0.0112902,0.007,0.000737209,0.00775959,0.0,1.0,3.0,689.0,689.0,34.0,69.0,-60.0,41.0,
0.08,0.25,1.35,0.009,0.017,0.0392,0.0122,550.0,28.0,3.6,100.0,0.0,0.0,0.09,0.07,0.01,0.01,0.14,0.01,0.012,0.001,0.02,0.0,1.0,1.0,547.0,635.0,15.0,66.0,-18.0,70.0,
0.072,0.11,0.85,0.015,0.017,0.0543,0.0119,550.0,28.0,3.6,100.0,0.0,0.0,0.14,0.07,0.01,0.01,0.14,0.01,0.005,0.001,0.01,0.0,1.0,1.0,436.0,525.0,15.0,77.0,38.0,70.0,
0.046,0.31,0.96,0.008,0.012,0.0422,0.0083,170.0,21.0,0.6,200.0,0.0,0.0,1.13569,3.93968,1.04898,0.01,0.309946,0.00862549,0.007,0.000737209,0.0334633,0.0,1.0,0.0,,,,,-50.0,100.0,
0.037,0.29,0.6,0.006,0.009,0.0422,0.0083,170.0,21.0,1.0,200.0,0.0,0.0,0.562171,7.93481,1.14616,0.165015,0.335709,0.0206962,0.00565589,0.00258145,0.0521986,0.0,1.0,0.0,,,,,-31.0,100.0,
0.051,0.32,1.8,0.006,0.012,0.0422,0.0083,170.0,21.0,1.0,200.0,0.0,0.0,0.772871,1.17437,0.43,0.01,0.208671,0.007,0.0155447,0.000737209,0.00775959,0.0,1.0,0.0,,,,,-44.0,100.0,
0.042,0.28,1.37,0.007,0.012,0.0422,0.0083,170.0,21.0,2.2,200.0,0.0,0.0,0.860981,1.17437,0.43,0.01,0.105,0.00133834,0.00728091,0.000737209,0.00775959,0.0,1.0,0.0,,,,,-57.0,100.0,
0.042,0.2,0.93,0.008,0.011,0.0422,0.0083,170.0,21.0,4.3,200.0,0.0,0.0,0.17443,7.45084,1.21752,0.01,0.275586,0.025025,0.0115861,0.00228203,0.0301626,0.0,1.0,0.0,,,,,-27.0,100.0,
0.13,0.3,1.4,0.01,0.012,0.043,0.0095,850.0,35.0,7.9,300.0,0.0,0.0,0.07,0.06,0.005,0.002,0.389702,5e-05,0.00894423,0.000509273,0.018,0.0,1.0,1.0,530.0,620.0,,63.0,,,
0.105,0.3,1.5,0.018,0.011,0.037,0.0095,850.0,35.0,7.9,300.0,0.0,0.0,0.08,0.03,0.011,0.0005,0.247916,0.0101709,0.0128749,0.00177274,0.015,0.0,1.0,1.0,423.0,564.0,,71.0,,,
0.1,0.26,1.38,0.01,0.011,0.0416,0.0116,850.0,35.0,7.9,300.0,0.0,0.0,0.07,0.03,0.14,0.002,0.421958,0.012,0.0176743,0.0022,0.01,0.0,1.0,1.0,460.0,583.0,,63.0,,,
0.05,0.31,1.79,0.007,0.015,0.0422,0.0083,170.0,21.0,1.0,20.0,0.0,0.0,1.80474,3.00648,0.101134,0.497174,0.0962067,0.0139251,0.0257186,0.0023461,0.00775959,0.0,1.0,0.0,604.0,657.0,22.0,71.9,-29.0,100.0,
0.042,0.32,1.02,0.007,0.012,0.0422,0.0083,170.0,21.0,1.0,240.0,0.0,0.0,0.17443,2.55582,1.00472,0.01,0.105,0.0218194,0.007,0.00141264,0.0201405,0.0,1.0,0.0,427.0,499.0,34.6,80.5,-42.0,100.0,
0.047,0.28,1.66,0.007,0.012,0.0422,0.0083,170.0,21.0,1.0,300.0,0.0,0.0,0.624569,4.78955,0.266624,0.01,0.806627,0.0157977,0.0306175,0.00210398,0.0320681,0.0,1.0,0.0,446.0,533.0,32.2,80.6,-57.0,100.0,
0.15,0.3,1.57,0.026,0.028,0.0422,0.0083,650.0,33.0,3.3,300.0,250.0,2.0,0.07,0.059,0.11,0.122,0.093,0.006,0.017,0.000174245,0.006,0.0,1.0,1.0,715.0,,16.0,62.0,,,
0.12,0.34,1.67,0.024,0.03,0.0422,0.0083,850.0,38.0,7.6,300.0,250.0,2.0,0.053,0.06,0.005,0.115,0.06,0.006,0.016,0.000179768,0.005,0.0,1.0,1.0,604.0,,30.0,48.0,,,
0.11,0.28,1.39,0.009,0.017,0.0422,0.0083,650.0,33.0,3.3,300.0,250.0,2.0,0.065,0.069,0.008,0.032,0.12,0.005,0.018,0.000737209,0.005,0.0,1.0,1.0,540.0,,26.0,70.0,,,
0.1,0.41,1.83,0.009,0.014,0.0422,0.0083,650.0,33.0,3.3,300.0,250.0,2.0,0.095,0.078,0.3,0.041,0.16,0.007,0.019,0.000353098,0.005,0.0,1.0,1.0,692.0,,30.0,60.0,,,
0.08,0.28,1.39,0.011,0.015,0.034,0.0054,650.0,33.0,3.3,300.0,600.0,0.75,0.028,0.03,0.17,0.049,0.044,0.005,0.012,0.000592043,0.015,0.0,1.0,1.0,642.0,732.0,22.0,58.0,,,
0.12,0.26,1.4,0.012,0.014,0.042,0.0138,650.0,33.0,3.3,300.0,600.0,0.75,0.057,0.05,0.009,0.056,0.106,0.005,0.014,0.000737209,0.005,0.0,1.0,1.0,581.0,704.0,23.0,60.0,,,
0.1,0.35,1.54,0.009,0.016,0.042,0.0138,650.0,33.0,3.3,300.0,600.0,0.75,0.06,0.049,0.18,0.057,0.11,0.005,0.016,0.000347714,0.005,0.0,1.0,1.0,593.0,692.0,26.0,65.0,,,
0.12,0.33,1.47,0.014,0.014,0.04,0.0136,650.0,33.0,3.3,300.0,600.0,0.75,0.06,0.05,0.39,0.055,0.11,0.005,0.015,0.00123475,0.005,0.0,1.0,1.0,613.0,747.0,24.0,64.0,,,
0.14,0.38,1.65,0.028,0.01,0.0422,0.0083,650.0,33.0,3.3,300.0,600.0,0.75,0.17443,1.17437,0.5,0.005,0.105,0.0,0.007,0.000737209,0.0,0.0,1.0,1.0,644.0,714.0,34.0,63.0,,,
0.11,0.31,1.37,0.013,0.019,0.0422,0.0083,650.0,33.0,3.3,300.0,0.0,0.0,0.09,0.06,0.018,0.336242,0.18,0.00715086,0.022,0.00189946,0.012,0.0,1.0,1.0,488.0,618.0,26.0,60.0,,,
0.09,0.46,1.81,0.017,0.024,0.034,0.01,650.0,33.0,3.3,300.0,0.0,0.0,0.1,0.08,0.28,0.402204,0.21,0.0133756,0.026,0.00141008,0.014,0.0,1.0,1.0,620.0,712.0,22.0,58.0,,,
0.09,0.37,1.03,0.004,0.01,0.047,0.037,180.0,23.0,1.3,175.0,720.0,8.0,0.05,8.8,1.03,0.25,0.01,0.01,0.01,0.00208392,0.08,0.0,1.0,0.0,,,,,,,241.0
0.06,0.34,1.08,0.007,0.014,0.048,0.011,116.0,23.0,1.3,175.0,720.0,2.0,0.69,9.0,1.03,0.29,0.02,0.01,0.01,0.00197667,0.01,0.0,1.0,0.0,,,,,,,224.0
0.07,0.23,1.0,0.002,0.006,0.046,0.025,116.0,23.0,1.3,175.0,0.0,0.0,0.58,8.3,0.93,0.24,0.01,0.01,0.01,0.00174709,0.034,0.0,1.0,0.0,,,,,,,398.0
0.07,0.23,1.0,0.002,0.006,0.046,0.025,116.0,23.0,1.3,175.0,760.0,8.0,0.58,8.3,0.93,0.24,0.01,0.01,0.01,0.00172856,0.034,0.0,1.0,0.0,,,,,,,212.0
0.11,0.51,1.1,0.007,0.013,0.05,0.04,115.0,23.0,1.0,175.0,760.0,2.0,0.08,8.9,1.0,0.18,0.03,0.01,0.01,0.00292254,0.09,0.0,1.0,0.0,,,,,,,249.0
0.06,0.32,1.23,0.002,0.002,0.038,0.008,163.0,25.0,1.2,175.0,740.0,8.0,1.01,8.4,0.89,0.22,0.01,0.01,0.01,0.00143384,0.03,0.0,1.0,0.0,,,,,,,253.0
0.1,0.4,0.98,0.004,0.008,0.041,0.042,145.0,21.0,1.2,200.0,750.0,2.0,0.17,8.7,0.98,0.22,0.03,1e-06,1e-06,0.000454698,0.03,0.0,1.0,0.0,,,,,-20.0,8.0,
0.1,0.42,0.91,0.004,0.008,0.039,0.041,146.0,22.0,1.1,200.0,760.0,8.0,0.17,8.9,0.98,0.21,0.03,1e-06,1e-06,0.00191476,0.09,0.0,1.0,0.0,,,,,-20.0,10.0,
0.11,0.27,0.6,0.002,0.01,0.0422,0.037,400.0,31.5,1.4,177.0,746.0,4.0,0.14,8.77,1.01,0.2,0.1,0.002,1.4e-06,0.001,0.0526597,1.0,1.0,9.0,629.0,735.0,21.0,68.0,,,
0.11,0.3,0.44,0.004,0.011,0.0422,0.034,275.0,28.5,1.2,177.0,746.0,4.0,0.08,8.58,1.0,0.22,0.05,0.002,4e-07,0.001,0.0551981,0.0,1.0,7.0,603.0,726.0,20.0,66.0,,,
0.1,0.22,0.55,0.009,0.013,0.026,0.0083,500.0,32.0,2.0,250.0,690.0,10.0,0.21,2.68,1.05,1.08346,0.0876329,0.021405,0.02,0.00204906,0.0377041,0.0,1.0,5.0,492.0,610.0,27.0,,-40.0,72.0,
0.1,0.19,0.53,0.007,0.007,0.022,0.0083,500.0,32.0,2.0,250.0,690.0,10.0,0.2,2.7,1.03,0.344435,0.384005,0.0240159,0.015,0.00227965,0.035917,0.0,1.0,5.0,456.0,592.0,29.0,,24.0,270.0,
0.09,0.24,0.68,0.013,0.006,0.052,0.0083,500.0,30.0,3.6,200.0,690.0,10.0,0.2,2.22,1.03,0.174159,0.105,0.0121066,0.01,0.0016832,0.00926286,0.0,1.0,6.0,535.0,627.0,23.0,,2.0,127.0,
0.11,0.14,0.73,0.002,0.005,0.0254,0.0026,500.0,29.0,2.9,200.0,690.0,8.0,0.39562,2.3,1.03,0.27,0.105,0.0340727,0.0185642,0.0021829,0.02,1.0,0.0,1.0,,738.0,,,-40.0,17.0,
0.12,0.14,1.03,0.002,0.006,0.0166,0.0022,500.0,29.0,2.9,200.0,690.0,8.0,0.745321,2.3,1.03,0.27,0.445619,0.0146933,0.007,0.000671453,0.02,1.0,0.0,1.0,,745.0,,,-40.0,53.0,
0.14,0.18,0.75,0.002,0.005,0.0256,0.0021,500.0,29.0,2.9,200.0,690.0,8.0,0.42204,2.3,1.01,0.27,0.080574,0.0176299,0.0156212,0.00260467,0.02,1.0,0.0,1.0,,770.0,,,-40.0,37.0,
0.12,0.13,1.29,0.002,0.009,0.0344,0.0035,500.0,29.0,2.9,200.0,690.0,24.0,0.66724,2.26,0.99,0.3,0.728251,0.0100259,0.007,0.000977139,0.02,1.0,0.0,1.0,,,21.8,70.7,,,
0.12,0.13,1.18,0.002,0.007,0.0286,0.0312,500.0,29.0,2.9,200.0,690.0,24.0,0.346216,2.26,1.0,0.31,0.0365351,0.00906507,0.007,0.00046942,0.02,1.0,0.0,1.0,,,21.7,67.0,,,
0.084,0.415,1.24,0.011,0.015,0.048,0.0086,170.0,21.0,2.4,100.0,550.0,1.83,0.05,0.037,0.385,0.0646868,0.105,0.00963316,0.00872471,0.000737209,0.00712678,0.0,1.0,1.0,,,,,,,
0.084,0.3,0.54,0.005,0.008,0.066,0.0066,170.0,21.0,2.4,175.0,690.0,2.33,0.036,2.2,1.05,0.371749,0.035,0.0158495,0.00450389,0.00193409,0.011636,0.0,1.0,1.0,,,,,,,
0.06,0.2,1.15,0.007,0.017,0.035,0.0097,170.0,21.0,2.4,125.0,605.0,1.92,0.16,0.052,0.45,0.01,0.128,6.31498e-05,0.007,0.000149547,0.0403658,0.0,1.0,1.0,,,,,,,
0.07,0.08,0.98,0.01,0.01,0.0891,0.0097,300.0,28.0,2.04,150.0,690.0,10.0,0.27,2.07,1.07,0.015,0.459825,0.0345131,0.0217798,0.0019535,0.000274451,0.0,1.0,2.0,440.0,540.0,24.0,67.0,-70.0,9.0,
0.07,0.08,0.98,0.01,0.01,0.0891,0.0097,300.0,28.0,2.04,150.0,690.0,10.0,0.27,2.07,1.07,0.015,0.105,0.00826222,0.007,0.00124638,0.015023,0.0,1.0,2.0,440.0,540.0,24.0,67.0,20.0,179.0,
0.048,0.13,1.06,0.014,0.016,0.0768,0.0266,300.0,28.0,1.96,150.0,690.0,10.0,0.23,2.02,1.3,0.02,0.433998,0.0188365,0.007,0.00178466,0.0138772,0.0,1.0,2.0,506.0,598.0,22.0,70.0,-40.0,15.0,
0.043,0.12,0.86,0.011,0.017,0.0922,0.0123,300.0,20.0,2.08,150.0,690.0,10.0,0.2,2.01,0.93,0.02,0.114414,0.0112968,0.0304953,5.95975e-05,0.00775959,0.0,1.0,2.0,505.0,600.0,19.0,69.0,-70.0,3.0,
0.043,0.12,0.86,0.011,0.017,0.0922,0.0123,300.0,20.0,2.08,150.0,690.0,10.0,0.2,2.01,0.93,0.02,0.6029,0.012082,0.007,0.0011006,0.00490054,0.0,1.0,2.0,505.0,600.0,19.0,69.0,30.0,65.0,
0.042,0.14,1.33,0.012,0.015,0.0735,0.0236,300.0,28.0,1.96,150.0,690.0,10.0,0.26,2.39,1.21,0.015,0.595424,0.0177661,0.007,0.00113999,0.00590589,0.0,1.0,2.0,520.0,620.0,20.0,54.0,0.0,123.0,
0.047,0.42,1.0,0.015,0.016,0.0695,0.0165,300.0,28.0,2.08,150.0,690.0,10.0,0.17,2.29,1.04,0.018,0.105,0.0137802,0.00334264,0.000737209,0.0316698,0.0,1.0,2.0,537.0,620.0,11.0,24.0,-40.0,12.0,
0.047,0.42,1.0,0.015,0.016,0.0695,0.0165,300.0,28.0,2.08,150.0,690.0,10.0,0.17,2.29,1.04,0.018,0.315668,0.0251688,0.0136604,0.00125245,0.0312603,0.0,1.0,2.0,537.0,620.0,11.0,24.0,70.0,167.0,
0.074,0.27,1.11,0.009,0.024,0.0556,0.0113,290.0,29.0,2.0,150.0,690.0,10.0,0.17,2.3,0.96,0.018,0.469352,0.007,0.00244738,0.000737209,0.0153121,0.0,1.0,2.0,595.0,675.0,24.0,69.0,20.0,52.0,
0.062,0.24,1.24,0.14,0.25,0.0408,0.0269,290.0,29.0,2.0,150.0,690.0,10.0,0.22,2.17,0.98,0.18,0.310225,0.0145648,0.007,0.000719819,0.00771039,0.0,1.0,2.0,643.0,708.0,16.0,32.0,-60.0,9.0,
0.062,0.24,1.24,0.14,0.25,0.0408,0.0269,290.0,29.0,2.0,150.0,690.0,10.0,0.22,2.17,0.98,0.18,0.105,0.00957412,0.0112747,0.0010004,0.0211044,0.0,1.0,2.0,643.0,708.0,16.0,32.0,60.0,68.0,
0.13,0.17,0.73,0.003,0.008,0.0422,0.0083,450.0,26.0,2.8,225.0,690.0,14.0,0.06,2.3,1.0,0.021,0.08,0.001,0.014,0.000679865,0.001,0.0,1.0,5.0,437.0,585.0,23.0,,,,
0.058,0.2,0.55,0.027,0.027,0.073,0.0083,150.0,37.5,1.0,300.0,690.0,3.0,0.17443,1.8,1.2,0.426513,0.389154,0.00213817,0.00255411,0.000737209,0.0173557,0.0,1.0,0.0,464.0,578.0,23.0,71.0,,,205.0
0.043,0.34,0.45,0.019,0.017,0.058,0.0083,150.0,37.5,1.0,300.0,690.0,3.0,0.839625,2.2,1.4,0.346963,0.105,0.0288604,0.0100067,0.00172634,0.012776,0.0,1.0,0.0,527.0,635.0,20.0,67.0,,,219.0
0.049,0.39,0.78,0.022,0.018,0.068,0.0083,150.0,37.5,1.0,300.0,690.0,3.0,0.187713,2.2,1.1,0.01,0.220644,0.01373,0.0122305,0.000745399,0.0199992,0.0,1.0,0.0,546.0,661.0,20.0,69.0,,,226.0
0.12,0.27,1.27,0.014,0.021,0.068,0.0083,150.0,37.5,1.0,300.0,690.0,3.0,0.17443,2.4,0.9,0.532333,0.0867364,0.0133198,0.0160137,0.000344284,0.00775959,0.0,1.0,0.0,,,,,,,244.0
0.06,0.26,0.94,0.011,0.018,0.0422,0.0083,150.0,37.5,1.0,300.0,690.0,3.0,0.0880345,2.3,1.2,0.01,0.0753216,0.00425978,0.0229781,0.000737209,0.0150106,0.0,1.0,0.0,,,,,,,227.0
0.08,0.25,0.8,0.01,0.01,0.0422,0.0083,525.0,30.0,1.75,210.0,700.0,20.0,0.03,2.3,1.05,0.01,0.02,0.0105766,0.007,0.000282813,0.04992,0.0,1.0,1.0,507.0,613.0,,,-10.0,197.0,
0.08,0.25,0.8,0.01,0.01,0.0422,0.0083,525.0,30.0,1.75,210.0,700.0,20.0,0.03,2.3,1.05,0.01,0.02,0.0101044,0.00711923,0.0014316,0.0201706,0.0,1.0,1.0,515.0,616.0,,,,,
0.08,0.25,0.8,0.01,0.01,0.0422,0.0083,525.0,30.0,1.75,210.0,700.0,20.0,0.03,2.3,1.05,0.01,0.02,0.0128537,0.00418048,0.00109405,0.0130684,0.0,1.0,1.0,509.0,610.0,,,188.0,141.0,
0.03,0.55,0.88,0.012,0.013,0.0422,0.0083,545.0,32.0,3.7,200.0,720.0,3.5,0.763582,2.06,1.08,0.01,0.232947,0.0154415,0.0238368,0.00198349,0.0217288,0.0,1.0,1.0,315.0,500.0,,,,,
0.096,0.3,0.8,0.012,0.013,0.0265,0.0047,650.0,30.0,2.925,250.0,200.0,1.0,0.0,0.0,0.0,0.0,0.0,0.0106582,0.017,6.01059e-05,0.0,0.0,1.0,1.0,370.0,481.0,33.6,76.0,,,
0.089,0.32,1.36,0.005,0.019,0.0237,0.0085,550.0,30.0,2.475,250.0,200.0,1.0,0.0,0.0,0.0,0.0,0.0,0.00474766,0.018,0.00116519,0.0,0.0,1.0,1.0,428.0,539.0,28.0,75.0,,,
0.075,0.47,1.31,0.014,0.02,0.0465,0.0049,450.0,30.0,2.025,250.0,200.0,1.0,0.0,0.0,0.0,0.0,0.0,0.00569283,0.019,0.00296585,0.0,0.0,1.0,1.0,405.0,497.0,31.6,76.0,,,
0.077,0.44,1.61,0.012,0.021,0.0434,0.0105,450.0,30.0,2.025,250.0,200.0,1.0,0.0,0.0,0.0,0.0,0.0,0.00567522,0.018,0.000463478,0.0,0.0,1.0,1.0,456.0,567.0,27.6,73.0,,,
0.08,0.58,1.15,0.01,0.01,0.031,0.0052,190.0,23.0,1.0925,250.0,200.0,1.0,0.0,0.0,0.0,0.0,0.0,0.0162849,0.001,0.00101887,0.0,0.0,1.0,0.0,492.0,573.0,27.6,75.0,,,
0.066,0.8,1.12,0.017,0.021,0.0774,0.0026,550.0,30.0,2.475,250.0,200.0,1.0,0.0,0.0,0.0,0.0,0.0,0.0088324,0.033,0.000430711,0.0,0.0,1.0,1.0,469.0,561.0,29.0,69.0,,,
0.064,0.95,1.33,0.013,0.024,0.0765,0.0042,550.0,30.0,2.475,250.0,200.0,1.0,0.0,0.0,0.0,0.0,0.0,0.007,0.028,0.000737209,0.0,0.0,1.0,1.0,516.0,613.0,23.6,63.0,,,
0.071,0.84,1.53,0.012,0.022,0.072,0.0072,550.0,30.0,2.475,250.0,200.0,1.0,0.0,0.0,0.0,0.0,0.0,0.0191007,0.031,0.00205168,0.0,0.0,1.0,1.0,560.0,652.0,25.0,56.0,,,
0.064,0.3,0.63,0.006,0.008,0.0473,0.007,170.0,21.0,1.0,200.0,250.0,14.0,0.92,0.0,0.0,0.0005,0.0,0.0005,0.0005,0.0005,0.0005,0.0,0.0,0.0,423.0,501.0,31.8,77.0,-63.0,100.0,
0.07,0.31,0.66,0.006,0.008,0.043,0.0079,170.0,21.0,1.0,200.0,250.0,14.0,0.0,0.0,0.24,0.0005,0.0,0.0005,0.0005,0.0005,0.0005,0.0,0.0,0.0,433.0,518.0,26.0,78.9,-61.0,100.0,
0.07,0.35,0.65,0.008,0.01,0.0504,0.0078,170.0,21.0,1.0,200.0,250.0,14.0,0.0,1.01,0.0,0.0005,0.0,0.0005,0.0005,0.0005,0.0005,0.0,0.0,0.0,481.0,559.0,22.0,75.0,-40.0,100.0,
0.068,0.28,0.62,0.008,0.007,0.0477,0.0073,170.0,21.0,1.0,200.0,250.0,14.0,0.0,0.0,0.0,0.0005,0.5,0.0005,0.0005,0.0005,0.0005,0.0,0.0,0.0,391.0,468.0,29.4,77.0,-63.0,100.0,
0.073,0.35,0.64,0.005,0.004,0.0428,0.0077,170.0,21.0,1.0,200.0,250.0,14.0,0.0,0.0,0.0,0.0005,0.0,0.0038,0.0005,0.0005,0.0005,0.0,0.0,0.0,402.0,494.0,33.3,77.5,-45.0,100.0,
0.067,0.3,0.65,0.007,0.007,0.046,0.0072,170.0,21.0,1.0,200.0,250.0,14.0,3.03,0.0,0.0,0.0005,0.0,0.0036,0.0005,0.0005,0.0005,0.0,0.0,0.0,477.0,557.0,29.4,78.0,-85.0,100.0,
0.072,0.32,0.66,0.007,0.007,0.0411,0.0076,170.0,21.0,1.0,200.0,250.0,14.0,0.0,0.0,1.03,0.0005,0.0,0.004,0.0005,0.0005,0.0005,0.0,0.0,0.0,565.0,644.0,23.6,76.0,-33.0,100.0,
0.078,0.28,0.64,0.008,0.007,0.0482,0.0095,170.0,21.0,1.0,200.0,250.0,14.0,0.0,2.15,0.0,0.0005,0.0,0.0042,0.0005,0.0005,0.0005,0.0,0.0,0.0,598.0,685.0,18.0,68.6,8.0,100.0,
0.066,0.37,0.67,0.006,0.008,0.0453,0.0055,170.0,21.0,1.0,200.0,250.0,14.0,0.0,0.0,0.0,0.0005,1.44,0.0051,0.0005,0.0005,0.0005,0.0,0.0,0.0,516.0,568.0,28.8,75.0,-43.0,100.0,
0.071,0.26,1.48,0.007,0.012,0.046,0.0087,170.0,21.0,1.0,200.0,250.0,14.0,2.28,0.0,0.0,0.0005,0.0,0.0005,0.0005,0.0005,0.0005,0.0,0.0,0.0,512.0,605.0,21.7,75.0,-20.0,100.0,
0.076,0.25,1.45,0.008,0.006,0.0457,0.0078,170.0,21.0,1.0,200.0,250.0,14.0,0.0,0.0,0.5,0.0005,0.0,0.0005,0.0005,0.0005,0.0005,0.0,0.0,0.0,523.0,610.0,19.4,75.0,-4.0,100.0,
0.075,0.28,1.48,0.007,0.005,0.0466,0.0086,170.0,21.0,1.0,200.0,250.0,14.0,0.0,1.55,0.0,0.0005,0.0,0.0005,0.0005,0.0005,0.0005,0.0,0.0,0.0,591.0,687.0,17.8,69.7,6.0,100.0,
0.075,0.24,1.41,0.006,0.008,0.0484,0.0089,170.0,21.0,1.0,200.0,250.0,14.0,0.0,0.0,0.0,0.0005,1.06,0.0005,0.0005,0.0005,0.0005,0.0,0.0,0.0,492.0,566.0,25.0,75.0,-4.0,100.0,
0.076,0.25,1.48,0.008,0.006,0.0417,0.0081,170.0,21.0,1.0,200.0,250.0,14.0,0.95,0.0,0.0,0.0005,0.0,0.0033,0.0005,0.0005,0.0005,0.0,0.0,0.0,498.0,551.0,27.2,78.9,-62.0,100.0,
0.076,0.26,1.49,0.008,0.008,0.0412,0.0089,170.0,21.0,1.0,200.0,250.0,14.0,0.0,0.0,0.25,5.0,0.0,0.0034,0.0005,0.0005,0.0005,0.0,0.0,0.0,560.0,600.0,25.0,77.0,-69.0,100.0,
0.079,0.3,1.56,0.007,0.011,0.0431,0.0098,170.0,21.0,1.0,200.0,250.0,14.0,0.0,1.03,0.0,0.0005,0.0,0.0027,0.0005,0.0005,0.0005,0.0,0.0,0.0,624.0,672.0,20.0,73.0,-58.0,100.0,
0.076,0.27,1.48,0.007,0.008,0.0454,0.0081,170.0,21.0,1.0,200.0,250.0,14.0,0.0,0.0,0.0,0.0005,0.53,0.0022,0.0005,0.0005,0.0005,0.0,0.0,0.0,495.0,557.0,27.6,78.9,-57.0,100.0,
0.088,0.39,0.89,0.008,0.017,0.0361,0.0373,450.0,30.0,2.0,200.0,760.0,2.0,0.57,8.2,0.96,0.18,0.105,0.0149291,0.007,0.00180214,0.05,0.0,1.0,1.0,830.0,,,,,,
0.09,0.34,0.89,0.008,0.016,0.0396,0.0096,450.0,30.0,2.0,200.0,760.0,2.0,0.17,8.2,0.94,0.02,0.105,0.00266712,0.007,0.000737209,0.005,0.0,1.0,1.0,660.0,,,,,,
0.18,0.39,0.88,0.008,0.017,0.0327,0.0103,450.0,30.0,2.0,200.0,760.0,2.0,0.18,10.2,0.94,0.28,0.23537,0.00976299,0.0202912,0.00112024,0.005,0.0,1.0,1.0,,,,,,,